time (s)	coil I (A)	last det (V)	int current (uC)
8813.518693	3.265888	179.492187	-12.402344
8813.520695	3.267206	179.492187	-12.402344
8813.522696	3.267306	179.492187	-12.402344
8813.526694	3.266659	179.492187	-12.402344
8813.528696	3.266711	35.933819	0.051142
8814.504762	3.265885	39.648437	-270.800781
8814.506764	3.267209	39.648437	-270.800781
8814.508763	3.267364	39.648437	-270.800781
8814.510764	3.266908	39.648437	-270.800781
8814.512764	3.266771	35.934483	0.129414
8815.580786	3.266921	176.757812	-9.082031
8815.582788	3.267556	176.757812	-9.082031
8815.584788	3.267436	176.757812	-9.082031
8815.586790	3.266964	176.757812	-9.082031
8815.588788	3.266853	35.935379	0.062761
8816.578858	3.265144	44.140625	-267.968750
8816.580861	3.267201	44.140625	-267.968750
8816.582861	3.267668	44.140625	-267.968750
8816.584862	3.267180	44.140625	-267.968750
8816.586861	3.266928	35.936211	0.150704
8817.680909	3.265564	182.617187	-10.644531
8817.682907	3.267344	182.617187	-10.644531
8817.684907	3.267682	182.617187	-10.644531
8817.686909	3.267216	182.617187	-10.644531
8817.688907	3.266863	35.935493	0.049922
8818.673009	3.265079	44.238281	-263.281250
8818.675009	3.267005	44.238281	-263.281250
8818.677010	3.267364	44.238281	-263.281250
8818.679008	3.266910	44.238281	-263.281250
8818.681010	3.266759	35.934349	0.120432
8819.753084	3.266526	183.984375	-8.789062
8819.755087	3.267471	183.984375	-8.789062
8819.759084	3.267016	183.984375	-8.789062
8819.761086	3.266882	183.984375	-8.789062
8819.763086	3.266873	35.935600	0.070107
8820.757135	3.265576	42.382812	-268.750000
8820.759137	3.267155	42.382812	-268.750000
8820.761138	3.267391	42.382812	-268.750000
8820.763139	3.266907	42.382812	-268.750000
8820.765138	3.266733	35.934067	0.133610
8821.845203	3.266951	186.914062	-13.378906
8821.847204	3.267421	186.914062	-13.378906
8821.849205	3.267056	186.914062	-13.378906
8821.851205	3.266713	35.933846	0.056213
8822.839261	3.267221	43.652344	-276.367187
8822.841263	3.266724	43.652344	-276.367187
8822.843264	3.266567	35.932232	0.132533
8823.927833	3.266535	188.281250	-16.601562
8823.929836	3.267686	188.281250	-16.601562
8823.931835	3.267750	188.281250	-16.601562
8823.933835	3.267277	188.281250	-16.601562
8823.935835	3.267065	35.937717	0.077991
8824.913882	3.266103	42.675781	-280.957031
8824.915882	3.267164	42.675781	-280.957031
8824.917882	3.267318	42.675781	-280.957031
8824.919881	3.266856	42.675781	-280.957031
8824.921883	3.266680	35.933483	0.129966
8826.020850	3.266069	188.183594	-17.675781
8826.022850	3.267210	188.183594	-17.675781
8826.026850	3.266832	188.183594	-17.675781
8826.028851	3.266738	188.183594	-17.675781
8826.030850	3.266637	35.933002	0.055557
8826.996898	3.266541	39.257812	-271.289062
8826.998900	3.267578	39.257812	-271.289062
8827.000898	3.267606	39.257812	-271.289062
8827.002900	3.267065	39.257812	-271.289062
8827.004900	3.266890	35.935783	0.136494
8828.113891	3.267246	187.304687	-16.699219
8828.115898	3.267782	187.304687	-16.699219
8828.117896	3.267459	187.304687	-16.699219
8828.119897	3.267147	35.938622	0.062125
8829.083921	3.264878	39.257812	-254.882812
8829.085923	3.266984	39.257812	-254.882812
8829.087923	3.267406	39.257812	-254.882812
8829.089923	3.267030	39.257812	-254.882812
8829.091922	3.266727	35.933998	0.134400
8830.181964	3.265916	185.449219	-13.574219
8830.183967	3.267607	185.449219	-13.574219
8830.187964	3.267328	185.449219	-13.574219
8830.189964	3.267195	185.449219	-13.574219
8830.191965	3.267097	35.938072	0.064294
8831.178036	3.267478	44.433594	-248.046875
8831.180037	3.267039	44.433594	-248.046875
8831.182039	3.266841	35.935253	0.146293
8832.268614	3.267096	187.695312	-11.425781
8832.270616	3.267392	187.695312	-11.425781
8832.272617	3.267062	187.695312	-11.425781
8832.274617	3.266746	35.934208	0.057956
8833.263169	3.267445	42.382812	-246.875000
8833.265170	3.267467	42.382812	-246.875000
8833.267170	3.267194	42.382812	-246.875000
8833.269171	3.267028	35.937309	0.128625
8834.355223	3.184566	190.917969	-11.621094
8834.357224	3.267149	190.917969	-11.621094
8834.359227	3.266800	190.917969	-11.621094
8834.361225	3.266605	35.932655	0.064635
8835.347268	3.267616	39.941406	-253.125000
8835.349272	3.267787	39.941406	-253.125000
8835.351272	3.267253	39.941406	-253.125000
8835.353270	3.267107	35.938179	0.132493
8836.431338	3.267011	193.261719	-16.503906
8836.433340	3.267769	193.261719	-16.503906
8836.435339	3.267694	193.261719	-16.503906
8836.437340	3.267172	193.261719	-16.503906
8836.439340	3.267008	35.937088	0.070230
8837.425369	3.266243	41.308594	-258.203125
8837.427371	3.267168	41.308594	-258.203125
8837.429372	3.267224	41.308594	-258.203125
8837.431372	3.266713	41.308594	-258.203125
8837.433370	3.266541	35.931950	0.130880
8838.523440	3.265600	194.335937	-19.531250
8838.525440	3.267282	194.335937	-19.531250
8838.527442	3.267536	194.335937	-19.531250
8838.529442	3.267039	194.335937	-19.531250
8838.531440	3.266878	35.935661	0.071964
8839.509494	3.265514	41.601562	-259.667969
8839.511498	3.267282	41.601562	-259.667969
8839.513498	3.267623	41.601562	-259.667969
8839.515498	3.267130	41.601562	-259.667969
8839.517500	3.266788	35.934669	0.124492
8840.606416	3.263115	195.703125	-20.898437
8840.608414	3.266579	195.703125	-20.898437
8840.610413	3.267265	195.703125	-20.898437
8840.612414	3.267080	195.703125	-20.898437
8840.614413	3.266651	195.703125	-20.898437
8840.616414	3.266615	35.932762	0.078426
8841.588436	3.267044	42.675781	-260.449219
8841.590437	3.267724	42.675781	-260.449219
8841.592437	3.267537	42.675781	-260.449219
8841.594438	3.267095	42.675781	-260.449219
8841.596439	3.266911	35.936024	0.138131
8842.700491	3.266566	196.289062	-22.167969
8842.704492	3.266990	196.289062	-22.167969
8842.706491	3.266629	196.289062	-22.167969
8842.708491	3.266571	35.932285	0.235369
8843.676549	3.265814	39.160156	-255.273437
8843.678552	3.267083	39.160156	-255.273437
8843.680551	3.267208	39.160156	-255.273437
8843.682550	3.266716	39.160156	-255.273437
8843.684551	3.266524	35.931763	0.128573
8844.779499	3.264090	196.679687	-21.972656
8844.783502	3.267277	196.679687	-21.972656
8844.785501	3.267107	196.679687	-21.972656
8844.787501	3.266738	196.679687	-21.972656
8844.789501	3.266539	35.931931	0.073306
8845.759548	3.266510	35.839844	-248.242187
8845.761549	3.267628	35.839844	-248.242187
8845.763550	3.267753	35.839844	-248.242187
8845.765549	3.267176	35.839844	-248.242187
8845.767550	3.267013	35.937141	0.126323
8846.861599	3.267214	196.777344	-21.386719
8846.863599	3.267314	196.777344	-21.386719
8846.867598	3.266649	196.777344	-21.386719
8846.869600	3.266579	35.932365	0.076599
8847.841650	3.266388	37.890625	-248.242187
8847.843654	3.267210	37.890625	-248.242187
8847.845652	3.267321	37.890625	-248.242187
8847.847652	3.266728	37.890625	-248.242187
8847.849652	3.266555	35.932110	0.135431
8848.949665	3.266949	199.023437	-23.339844
8848.951669	3.267176	199.023437	-23.339844
8848.953669	3.266791	199.023437	-23.339844
8848.955669	3.266554	35.932091	0.812378
8849.931726	3.265120	36.035156	-242.382812
8849.933731	3.266874	36.035156	-242.382812
8849.935730	3.267124	36.035156	-242.382812
8849.937729	3.266802	36.035156	-242.382812
8849.939728	3.266456	35.931019	0.130964
8851.031738	3.267643	198.632812	-21.582031
8851.033738	3.267590	198.632812	-21.582031
8851.035739	3.267088	198.632812	-21.582031
8851.037739	3.267049	35.937538	0.275158
8852.014297	3.264505	37.011719	-237.890625
8852.016299	3.266809	37.011719	-237.890625
8852.018299	3.267167	37.011719	-237.890625
8852.020298	3.266821	37.011719	-237.890625
8852.022297	3.266431	35.930740	0.127671
8853.114357	3.265448	200.488281	-21.582031
8853.116361	3.267216	200.488281	-21.582031
8853.118363	3.267538	200.488281	-21.582031
8853.120366	3.267035	200.488281	-21.582031
8853.122365	3.266873	35.935600	0.077005
8854.102419	3.266710	39.160156	-228.027344
8854.104420	3.267455	39.160156	-228.027344
8854.106419	3.267560	39.160156	-228.027344
8854.110419	3.266791	39.160156	-228.027344
8854.112421	3.266810	35.934910	0.131797
8855.194491	3.266976	198.925781	-17.187500
8855.196495	3.267485	198.925781	-17.187500
8855.198493	3.267297	198.925781	-17.187500
8855.200493	3.266811	198.925781	-17.187500
8855.202494	3.266860	35.935467	0.387489
8856.191405	3.265424	39.355469	-214.941406
8856.195406	3.267647	39.355469	-214.941406
8856.197407	3.267183	39.355469	-214.941406
8856.199406	3.266838	35.935219	0.130063
8857.271454	3.264484	199.121094	-16.113281
8857.273455	3.266791	199.121094	-16.113281
8857.275456	3.267155	199.121094	-16.113281
8857.277455	3.266857	199.121094	-16.113281
8857.279455	3.266559	35.932152	0.078859
8858.273535	3.263300	42.480469	-212.304687
8858.275538	3.266620	42.480469	-212.304687
8858.277538	3.267131	42.480469	-212.304687
8858.279537	3.267031	42.480469	-212.304687
8858.281537	3.266596	42.480469	-212.304687
8858.283538	3.266599	35.932587	0.135672
8859.367583	3.267211	199.707031	-19.433594
8859.369584	3.267320	199.707031	-19.433594
8859.371585	3.266778	199.707031	-19.433594
8859.373585	3.266655	35.933208	0.067080
8860.357673	3.265989	34.765625	-202.050781
8860.359677	3.267028	34.765625	-202.050781
8860.363679	3.266711	34.765625	-202.050781
8860.365679	3.266509	34.765625	-202.050781
8860.367679	3.266515	35.931664	0.137368
8861.447727	3.266488	197.167969	-19.531250
8861.449729	3.266521	197.167969	-19.531250
8861.451728	3.267050	197.167969	-19.531250
8861.453728	3.266601	197.167969	-19.531250
8861.455731	3.266496	35.931461	0.071754
8862.432292	3.264208	33.105469	-211.035156
8862.434295	3.266831	33.105469	-211.035156
8862.436297	3.267317	33.105469	-211.035156
8862.438296	3.266948	33.105469	-211.035156
8862.440295	3.266626	35.932888	0.138630
8863.536391	3.266356	200.488281	-23.046875
8863.538392	3.267210	200.488281	-23.046875
8863.540393	3.267181	200.488281	-23.046875
8863.542393	3.266747	200.488281	-23.046875
8863.544394	3.266616	35.932774	0.073236
8864.518446	3.267220	34.570312	-220.800781
8864.520448	3.267146	34.570312	-220.800781
8864.522449	3.266726	34.570312	-220.800781
8864.524448	3.266728	35.934013	0.133485
8865.619065	3.264721	202.539062	-24.804687
8865.621067	3.267164	202.539062	-24.804687
8865.623068	3.267610	202.539062	-24.804687
8865.625067	3.267330	202.539062	-24.804687
8865.627071	3.266993	35.936920	0.073308
8866.601116	3.264767	32.714844	-218.847656
8866.603118	3.267084	32.714844	-218.847656
8866.605116	3.267541	32.714844	-218.847656
8866.607117	3.267180	32.714844	-218.847656
8866.609118	3.266877	35.935642	0.130390
8867.705157	3.266513	206.054687	-25.585937
8867.707157	3.267356	206.054687	-25.585937
8867.709156	3.267380	206.054687	-25.585937
8867.711157	3.266838	206.054687	-25.585937
8867.713157	3.266728	35.934006	0.080263
8868.685202	3.265385	34.375000	-219.335937
8868.687205	3.267210	34.375000	-219.335937
8868.689205	3.267587	34.375000	-219.335937
8868.691206	3.267180	34.375000	-219.335937
8868.693205	3.266855	35.935406	0.126805
8869.785263	3.265867	207.128906	-24.218750
8869.787263	3.267382	207.128906	-24.218750
8869.789264	3.267550	207.128906	-24.218750
8869.793263	3.266874	207.128906	-24.218750
8869.795267	3.266833	35.935165	0.084203
8870.773334	3.265604	35.644531	-208.398437
8870.775337	3.267180	35.644531	-208.398437
8870.777337	3.267493	35.644531	-208.398437
8870.779338	3.266982	35.644531	-208.398437
8870.781336	3.266770	35.934467	0.129121
8871.869405	3.267369	206.738281	-21.484375
8871.871407	3.267488	206.738281	-21.484375
8871.873406	3.266927	206.738281	-21.484375
8871.875408	3.266813	35.934944	0.085721
8872.847466	3.266811	43.847656	-213.281250
8872.849465	3.267211	43.847656	-213.281250
8872.851466	3.266872	43.847656	-213.281250
8872.853468	3.266535	35.931885	0.140742
8873.947547	3.265332	204.492187	-19.531250
8873.949552	3.267248	204.492187	-19.531250
8873.951549	3.267692	204.492187	-19.531250
8873.953549	3.267207	204.492187	-19.531250
8873.955549	3.266870	35.935574	0.081690
8874.949610	3.266135	36.132812	-179.589844
8874.951612	3.267195	36.132812	-179.589844
8874.953614	3.267257	36.132812	-179.589844
8874.955613	3.266821	36.132812	-179.589844
8874.957614	3.266689	35.933578	0.131718
8876.033657	3.266688	204.589844	-21.289062
8876.035657	3.267356	204.589844	-21.289062
8876.037657	3.267262	204.589844	-21.289062
8876.039657	3.266783	204.589844	-21.289062
8876.041658	3.266745	35.934189	0.207339
8877.029679	3.264953	36.035156	-178.906250
8877.031681	3.266955	36.035156	-178.906250
8877.033682	3.267314	36.035156	-178.906250
8877.035683	3.267007	36.035156	-178.906250
8877.037681	3.266672	35.933395	0.133424
8878.117750	3.266187	204.101562	-21.777344
8878.119753	3.267417	204.101562	-21.777344
8878.121752	3.267703	204.101562	-21.777344
8878.123757	3.267123	204.101562	-21.777344
8878.125758	3.266979	35.936768	0.078439
8879.109798	3.263228	35.742187	-177.929687
8879.111801	3.266803	35.742187	-177.929687
8879.113801	3.267520	35.742187	-177.929687
8879.115801	3.267418	35.742187	-177.929687
8879.117800	3.266863	35.742187	-177.929687
8879.119800	3.266804	35.934845	0.134323
8880.207821	3.266449	205.175781	-24.121094
8880.209824	3.267609	205.175781	-24.121094
8880.211824	3.267828	205.175781	-24.121094
8880.213823	3.267219	205.175781	-24.121094
8880.215823	3.266985	35.936832	0.075526
8881.197877	3.267280	32.812500	-171.484375
8881.199879	3.267481	32.812500	-171.484375
8881.201879	3.266888	32.812500	-171.484375
8881.203882	3.266743	35.934174	0.132298
8882.287973	2.156883	204.589844	-23.437500
8882.289974	3.267638	204.589844	-23.437500
8882.291975	3.267679	204.589844	-23.437500
8882.293974	3.267164	204.589844	-23.437500
8882.295974	3.267042	35.937462	0.079878
8883.280017	3.266450	34.765625	-173.632812
8883.282019	3.267476	34.765625	-173.632812
8883.284020	3.267596	34.765625	-173.632812
8883.286018	3.267012	34.765625	-173.632812
8883.288020	3.266860	35.935467	0.135161
8884.374558	3.266424	205.468750	-23.925781
8884.376561	3.267470	205.468750	-23.925781
8884.378561	3.267582	205.468750	-23.925781
8884.380560	3.267067	205.468750	-23.925781
8884.382561	3.266914	35.936054	0.076207
8885.362599	3.266330	34.179687	-171.289062
8885.364601	3.267586	34.179687	-171.289062
8885.366601	3.267761	34.179687	-171.289062
8885.368602	3.267218	34.179687	-171.289062
8885.370601	3.266972	35.936691	0.132549
8886.458665	3.264865	210.937500	-24.121094
8886.460667	3.266954	210.937500	-24.121094
8886.462668	3.267333	210.937500	-24.121094
8886.464668	3.266928	210.937500	-24.121094
8886.466669	3.266592	35.932514	0.079853
8887.445211	3.263263	37.695312	-169.628906
8887.447216	3.266714	37.695312	-169.628906
8887.449214	3.267276	37.695312	-169.628906
8887.451213	3.267246	37.695312	-169.628906
8887.453215	3.266740	37.695312	-169.628906
8887.455214	3.266658	35.933243	0.137602
8888.539288	3.264919	209.179687	-22.558594
8888.541288	3.267304	209.179687	-22.558594
8888.543288	3.267684	209.179687	-22.558594
8888.545287	3.267373	209.179687	-22.558594
8888.547289	3.267006	35.937069	0.078887
8889.535278	3.265879	33.789062	-161.816406
8889.537279	3.267196	33.789062	-161.816406
8889.541279	3.266898	33.789062	-161.816406
8889.543281	3.266682	33.789062	-161.816406
8889.545279	3.266710	35.933811	0.130439
8890.615299	3.266585	211.425781	-23.046875
8890.617300	3.267289	211.425781	-23.046875
8890.619301	3.267143	211.425781	-23.046875
8890.621301	3.266791	211.425781	-23.046875
8890.623301	3.266690	35.933594	0.122713
8891.617359	3.266442	39.550781	-172.265625
8891.619360	3.267510	39.550781	-172.265625
8891.621360	3.267578	39.550781	-172.265625
8891.623362	3.267118	39.550781	-172.265625
8891.625370	3.266963	35.936592	0.130156
8892.705414	3.263320	213.378906	-22.753906
8892.709413	3.267823	213.378906	-22.753906
8892.711414	3.267654	213.378906	-22.753906
8892.715413	3.267009	213.378906	-22.753906
8892.717414	3.267049	35.937538	0.079886
8893.699941	3.265957	34.863281	-167.187500
8893.701944	3.267263	34.863281	-167.187500
8893.703944	3.267464	34.863281	-167.187500
8893.705950	3.266899	34.863281	-167.187500
8893.707953	3.266680	35.933483	0.126569
8894.788004	3.265188	215.039062	-24.316406
8894.790008	3.267023	215.039062	-24.316406
8894.792007	3.267020	215.039062	-24.316406
8894.794006	3.266928	215.039062	-24.316406
8894.796008	3.266671	35.933384	0.083945
8895.786080	3.267167	32.519531	-171.289062
8895.792080	3.266616	32.519531	-171.289062
8895.794080	3.266571	32.519531	-171.289062
8895.798081	3.266565	35.932213	0.125233
8896.874127	3.265770	216.015625	-29.003906
8896.876128	3.267361	216.015625	-29.003906
8896.878129	3.267537	216.015625	-29.003906
8896.880130	3.267110	216.015625	-29.003906
8896.882130	3.266994	35.936928	0.085699
8897.868178	3.267429	31.347656	-175.585937
8897.870180	3.267412	31.347656	-175.585937
8897.872182	3.266918	31.347656	-175.585937
8897.874181	3.266842	35.935265	0.124250
8898.962271	3.263978	216.503906	-31.054687
8898.966272	3.267713	216.503906	-31.054687
8898.968274	3.267492	216.503906	-31.054687
8898.970274	3.267037	216.503906	-31.054687
8898.972274	3.266930	35.936230	0.088406
8899.946329	3.265933	30.273437	-172.363281
8899.948330	3.267201	30.273437	-172.363281
8899.950330	3.267454	30.273437	-172.363281
8899.952332	3.266948	30.273437	-172.363281
8899.954329	3.266667	35.933338	0.126509
8901.046420	3.264594	215.234375	-31.054687
8901.048420	3.266927	215.234375	-31.054687
8901.050422	3.267356	215.234375	-31.054687
8901.052423	3.267063	215.234375	-31.054687
8901.054423	3.266732	35.934048	0.084870
8902.028472	3.267126	31.250000	-170.898437
8902.030475	3.267637	31.250000	-170.898437
8902.032475	3.267310	31.250000	-170.898437
8902.034474	3.266956	35.936512	0.126692
8903.132996	3.266832	214.355469	-30.273437
8903.134996	3.267388	214.355469	-30.273437
8903.136996	3.267106	214.355469	-30.273437
8903.138997	3.266803	214.355469	-30.273437
8903.140997	3.266756	35.934315	0.083045
8904.111046	3.266512	28.808594	-154.785156
8904.113047	3.267683	28.808594	-154.785156
8904.115047	3.267841	28.808594	-154.785156
8904.117049	3.267221	28.808594	-154.785156
8904.119049	3.267132	35.938454	0.130311
8905.213070	3.266256	213.378906	-28.027344
8905.215071	3.267359	213.378906	-28.027344
8905.217070	3.267365	213.378906	-28.027344
8905.219070	3.266804	213.378906	-28.027344
8905.221072	3.266678	35.933453	0.077832
8906.201636	3.265545	27.832031	-139.257812
8906.203639	3.267245	27.832031	-139.257812
8906.205639	3.267505	27.832031	-139.257812
8906.207639	3.267005	27.832031	-139.257812
8906.209638	3.266822	35.935040	0.128850
8907.295681	3.264068	214.941406	-28.515625
8907.297682	3.266836	214.941406	-28.515625
8907.299682	3.267334	214.941406	-28.515625
8907.301684	3.267109	214.941406	-28.515625
8907.303682	3.266744	214.941406	-28.515625
8907.305684	3.266633	35.932957	0.081434
8908.285732	3.267119	33.496094	-139.257812
8908.287734	3.267700	33.496094	-139.257812
8908.289736	3.267508	33.496094	-139.257812
8908.291736	3.267044	33.496094	-139.257812
8908.293733	3.266982	35.936806	0.361142
8909.376253	3.263523	217.285156	-27.246094
8909.378256	3.266934	217.285156	-27.246094
8909.380256	3.267556	217.285156	-27.246094
8909.382257	3.267380	217.285156	-27.246094
8909.384256	3.266896	217.285156	-27.246094
8909.386257	3.266771	35.934483	0.084611
8910.368307	3.265419	34.375000	-134.960937
8910.370309	3.266993	34.375000	-134.960937
8910.372314	3.267303	34.375000	-134.960937
8910.374321	3.266894	34.375000	-134.960937
8910.376325	3.266602	35.932621	0.130131
8911.458378	3.264247	218.847656	-26.171875
8911.460381	3.266737	218.847656	-26.171875
8911.462382	3.267189	218.847656	-26.171875
8911.464381	3.266942	218.847656	-26.171875
8911.466381	3.266491	35.931396	0.088139
8912.456437	3.265692	36.035156	-137.792969
8912.458439	3.267126	36.035156	-137.792969
8912.460439	3.267394	36.035156	-137.792969
8912.462440	3.266829	36.035156	-137.792969
8912.464439	3.266651	35.933163	0.124134
8913.545405	3.267405	219.824219	-25.683594
8913.547407	3.267894	219.824219	-25.683594
8913.549406	3.267467	219.824219	-25.683594
8913.551407	3.267151	35.938663	0.087015
8914.539414	3.267317	31.738281	-129.687500
8914.541415	3.267864	31.738281	-129.687500
8914.543417	3.267577	31.738281	-129.687500
8914.545417	3.267117	31.738281	-129.687500
8914.547416	3.267122	35.938335	0.123035
8915.629419	3.265555	220.312500	-28.710937
8915.631421	3.267416	220.312500	-28.710937
8915.633422	3.267802	220.312500	-28.710937
8915.635421	3.267308	220.312500	-28.710937
8915.637420	3.267114	35.938259	0.088362
8916.619522	3.265132	32.421875	-136.132812
8916.621523	3.267200	32.421875	-136.132812
8916.625522	3.267346	32.421875	-136.132812
8916.627523	3.266957	32.421875	-136.132812
8916.629522	3.266935	35.936279	0.125154
8917.713574	3.265558	221.191406	-28.710937
8917.715574	3.266955	221.191406	-28.710937
8917.717576	3.267259	221.191406	-28.710937
8917.719575	3.266785	221.191406	-28.710937
8917.721576	3.266587	35.932453	0.087076
8918.705580	3.266525	34.082031	-140.625000
8918.707583	3.267229	34.082031	-140.625000
8918.709581	3.267246	34.082031	-140.625000
8918.711583	3.266708	34.082031	-140.625000
8918.713584	3.266687	35.933552	0.119661
8919.798556	3.265976	221.875000	-31.054687
8919.800557	3.267313	221.875000	-31.054687
8919.802557	3.267556	221.875000	-31.054687
8919.804557	3.267019	221.875000	-31.054687
8919.810555	3.266779	35.934570	0.089868
8920.790569	3.267552	30.566406	-130.664062
8920.792572	3.267457	30.566406	-130.664062
8920.794572	3.267035	30.566406	-130.664062
8920.796571	3.266989	35.936874	0.122888
8921.882625	3.264580	221.679687	-30.859375
8921.884627	3.267305	221.679687	-30.859375
8921.886625	3.267855	221.679687	-30.859375
8921.888627	3.267457	221.679687	-30.859375
8921.890626	3.267172	35.938889	0.089810
8922.872665	3.267188	31.445312	-125.976562
8922.874667	3.267363	31.445312	-125.976562
8922.876667	3.266866	31.445312	-125.976562
8922.878665	3.266736	35.934093	0.124592
8923.964713	3.266409	227.636719	-31.152344
8923.966714	3.267216	227.636719	-31.152344
8923.970713	3.266779	227.636719	-31.152344
8923.972713	3.266708	227.636719	-31.152344
8923.974715	3.266687	35.933552	0.052902
8924.948753	3.264888	31.542969	-131.933594
8924.950755	3.266968	31.542969	-131.933594
8924.952755	3.267363	31.542969	-131.933594
8924.954755	3.266941	31.542969	-131.933594
8924.956754	3.266673	35.933403	0.126437
8926.050808	3.266831	224.902344	-30.078125
8926.052809	3.267615	224.902344	-30.078125
8926.054809	3.267512	224.902344	-30.078125
8926.056810	3.266989	224.902344	-30.078125
8926.060807	3.266965	35.936619	0.097394
8927.038852	3.266560	32.324219	-118.945312
8927.040854	3.267390	32.324219	-118.945312
8927.042853	3.267325	32.324219	-118.945312
8927.044854	3.266856	32.324219	-118.945312
8927.046854	3.266763	35.934395	0.122566
8928.128909	3.267180	224.707031	-28.417969
8928.132908	3.266782	224.707031	-28.417969
8928.134910	3.266605	224.707031	-28.417969
8928.136911	3.266587	35.932453	0.089028
8929.124977	3.266645	34.570312	-115.039062
8929.126977	3.267294	34.570312	-115.039062
8929.128977	3.267280	34.570312	-115.039062
8929.130976	3.266700	34.570312	-115.039062
8929.134974	3.266582	35.932400	0.123579
8930.213534	3.266918	224.121094	-27.734375
8930.215535	3.267617	224.121094	-27.734375
8930.217537	3.267471	224.121094	-27.734375
8930.219538	3.267012	224.121094	-27.734375
8930.221537	3.266898	35.935875	0.086822
8931.208069	3.266225	30.468750	-98.339844
8931.210072	3.267474	30.468750	-98.339844
8931.212071	3.267701	30.468750	-98.339844
8931.214071	3.267118	30.468750	-98.339844
8931.216071	3.266971	35.936680	0.127078
8932.298165	3.266423	223.925781	-29.101562
8932.300166	3.267178	223.925781	-29.101562
8932.302165	3.267069	223.925781	-29.101562
8932.304167	3.266671	223.925781	-29.101562
8932.306167	3.266559	35.932152	0.083331
8933.289104	3.266222	31.250000	-101.855469
8933.291107	3.267336	31.250000	-101.855469
8933.293106	3.267303	31.250000	-101.855469
8933.295108	3.266904	31.250000	-101.855469
8933.297107	3.266648	35.933125	0.130846
8934.387667	3.267267	222.949219	-30.859375
8934.389668	3.267499	222.949219	-30.859375
8934.391669	3.267422	222.949219	-30.859375
8934.393669	3.266721	35.933926	0.081992
8935.369710	3.264153	28.613281	-102.246094
8935.373715	3.267304	28.613281	-102.246094
8935.375714	3.267096	28.613281	-102.246094
8935.377714	3.266664	28.613281	-102.246094
8935.379713	3.266569	35.932259	0.127533
8936.470288	3.266667	220.800781	-32.421875
8936.472286	3.267287	220.800781	-32.421875
8936.476285	3.266785	220.800781	-32.421875
8936.478286	3.266616	220.800781	-32.421875
8936.480286	3.266624	35.932861	0.311476
8937.452340	3.265859	25.195312	-100.878906
8937.454341	3.267240	25.195312	-100.878906
8937.456343	3.267426	25.195312	-100.878906
8937.458344	3.266897	25.195312	-100.878906
8937.460343	3.266778	35.934563	0.124076
8938.556364	3.266021	223.144531	-34.277344
8938.558367	3.267198	223.144531	-34.277344
8938.560368	3.267273	223.144531	-34.277344
8938.562367	3.266861	223.144531	-34.277344
8938.564368	3.266655	35.933208	0.085977
8939.536379	3.267355	23.925781	-99.804687
8939.538381	3.267363	23.925781	-99.804687
8939.540380	3.266898	23.925781	-99.804687
8939.542381	3.266707	35.933781	0.119894
8940.640424	3.267156	224.414062	-35.937500
8940.642425	3.267540	224.414062	-35.937500
8940.644425	3.267166	224.414062	-35.937500
8940.646425	3.266855	35.935406	0.086683
8941.618501	3.265086	25.976562	-106.152344
8941.620502	3.267099	25.976562	-106.152344
8941.622504	3.267470	25.976562	-106.152344
8941.624503	3.267123	25.976562	-106.152344
8941.626503	3.266819	35.935013	0.119712
8942.720534	3.265385	226.464844	-36.132812
8942.722535	3.267072	226.464844	-36.132812
8942.724537	3.267374	226.464844	-36.132812
8942.726536	3.266898	226.464844	-36.132812
8942.728536	3.266704	35.933739	0.094321
8943.703109	3.266868	30.078125	-115.429687
8943.705109	3.267339	30.078125	-115.429687
8943.707111	3.267021	30.078125	-115.429687
8943.709110	3.266638	35.933022	0.588933
8944.806056	3.266936	227.832031	-36.035156
8944.808058	3.267306	227.832031	-36.035156
8944.810058	3.266903	227.832031	-36.035156
8944.812059	3.266659	35.933250	0.088609
8945.789051	3.264730	31.542969	-112.792969
8945.791052	3.267072	31.542969	-112.792969
8945.793051	3.267066	31.542969	-112.792969
8945.795051	3.267143	31.542969	-112.792969
8945.797052	3.266843	35.935272	0.120858
8946.885022	3.265370	228.027344	-35.449219
8946.887024	3.267278	228.027344	-35.449219
8946.889024	3.267655	228.027344	-35.449219
8946.891023	3.267189	228.027344	-35.449219
8946.893023	3.266909	35.935997	0.095716
8947.873069	3.265253	32.031250	-104.687500
8947.875072	3.267290	32.031250	-104.687500
8947.877071	3.267679	32.031250	-104.687500
8947.879071	3.267308	32.031250	-104.687500
8947.881072	3.266994	35.936935	0.123116
8948.970014	3.267353	228.417969	-33.593750
8948.972016	3.267590	228.417969	-33.593750
8948.974015	3.267138	228.417969	-33.593750
8948.976017	3.266833	35.935165	0.093866
8949.958025	3.265512	28.417969	-80.957031
8949.962024	3.267841	28.417969	-80.957031
8949.964028	3.267340	28.417969	-80.957031
8949.966028	3.267104	35.938145	0.121377
8951.052104	3.267325	228.320312	-30.859375
8951.054110	3.266953	228.320312	-30.859375
8951.056108	3.266667	228.320312	-30.859375
8951.060106	3.266517	35.931683	0.091192
8952.042703	3.264749	29.785156	-73.632812
8952.046703	3.267255	29.785156	-73.632812
8952.048706	3.266960	29.785156	-73.632812
8952.050705	3.266634	35.932976	0.123993
8953.128761	3.263457	228.515625	-30.468750
8953.130763	3.266583	228.515625	-30.468750
8953.132764	3.267208	228.515625	-30.468750
8953.134763	3.266985	228.515625	-30.468750
8953.136763	3.266597	228.515625	-30.468750
8953.138762	3.266540	35.931942	0.091080
8954.126844	3.266610	31.835937	-73.144531
8954.128846	3.267350	31.835937	-73.144531
8954.130846	3.267226	31.835937	-73.144531
8954.134843	3.266702	31.835937	-73.144531
8954.136846	3.266682	35.933498	0.122993
8955.217458	3.267503	228.417969	-31.054687
8955.219461	3.267480	228.417969	-31.054687
8955.221460	3.266916	228.417969	-31.054687
8955.223462	3.266802	35.934822	0.179991
8956.209574	3.266749	30.273437	-64.062500
8956.211576	3.267579	30.273437	-64.062500
8956.213572	3.267454	30.273437	-64.062500
8956.215574	3.267002	30.273437	-64.062500
8956.217576	3.266967	35.936638	0.122361
8957.297650	3.266586	228.808594	-30.957031
8957.299652	3.267705	228.808594	-30.957031
8957.301651	3.267872	228.808594	-30.957031
8957.303652	3.267316	228.808594	-30.957031
8957.305654	3.267138	35.938522	0.087843
8958.293688	3.265633	31.835937	-65.429687
8958.295690	3.267151	31.835937	-65.429687
8958.297692	3.267281	31.835937	-65.429687
8958.299691	3.266810	31.835937	-65.429687
8958.301691	3.266576	35.932339	0.122527
8959.380692	3.266620	229.101562	-31.152344
8959.382695	3.267595	229.101562	-31.152344
8959.384695	3.267578	229.101562	-31.152344
8959.388693	3.267036	229.101562	-31.152344
8959.390695	3.266988	35.936867	0.089599
8960.377220	3.266579	29.785156	-57.128906
8960.379224	3.267346	29.785156	-57.128906
8960.381224	3.267179	29.785156	-57.128906
8960.383224	3.266775	29.785156	-57.128906
8960.385222	3.266725	35.933979	0.121099
8961.467270	3.264004	229.296875	-31.933594
8961.469269	3.266975	229.296875	-31.933594
8961.471267	3.267561	229.296875	-31.933594
8961.473268	3.267395	229.296875	-31.933594
8961.475268	3.266956	229.296875	-31.933594
8961.477267	3.266917	35.936089	0.086246
8962.463303	3.267348	31.347656	-59.277344
8962.465304	3.267554	31.347656	-59.277344
8962.469301	3.266891	31.347656	-59.277344
8962.471303	3.266861	35.935474	0.118935
8963.551354	3.266942	229.101562	-32.519531
8963.553354	3.267371	229.101562	-32.519531
8963.555355	3.267014	229.101562	-32.519531
8963.557355	3.266730	35.934032	0.087999
8964.543357	3.266038	32.226562	-60.644531
8964.545358	3.267328	32.226562	-60.644531
8964.547358	3.267472	32.226562	-60.644531
8964.549358	3.266923	32.226562	-60.644531
8964.551358	3.266788	35.934669	0.121001
8965.633400	3.267317	230.664062	-31.835937
8965.635400	3.267664	230.664062	-31.835937
8965.637401	3.267317	230.664062	-31.835937
8965.639403	3.266987	35.936859	0.092188
8966.627989	3.266766	27.441406	-47.167969
8966.629990	3.267472	27.441406	-47.167969
8966.631991	3.267317	27.441406	-47.167969
8966.633991	3.266798	27.441406	-47.167969
8966.635990	3.266704	35.933746	0.120495
8967.718030	3.266959	230.957031	-33.496094
8967.720029	3.267423	230.957031	-33.496094
8967.722030	3.267055	230.957031	-33.496094
8967.724030	3.266772	35.934494	0.088926
8968.712057	3.266351	30.957031	-59.472656
8968.714059	3.267612	30.957031	-59.472656
8968.716058	3.267844	30.957031	-59.472656
8968.718059	3.267311	30.957031	-59.472656
8968.720059	3.267098	35.938080	0.117892
8969.798631	3.264513	230.859375	-34.179687
8969.800635	3.267183	230.859375	-34.179687
8969.802646	3.267802	230.859375	-34.179687
8969.804649	3.267539	230.859375	-34.179687
8969.806648	3.267085	230.859375	-34.179687
8969.808648	3.267032	35.937355	0.094699
8970.794685	3.267534	29.296875	-59.570312
8970.796686	3.267514	29.296875	-59.570312
8970.798687	3.266927	29.296875	-59.570312
8970.800685	3.266857	35.935432	0.322932
8971.885250	3.266830	231.250000	-36.425781
8971.889248	3.267297	231.250000	-36.425781
8971.891250	3.266823	231.250000	-36.425781
8971.893252	3.266746	35.934208	0.266296
8972.877277	3.267085	25.683594	-54.882812
8972.879278	3.267347	25.683594	-54.882812
8972.881279	3.266896	25.683594	-54.882812
8972.883278	3.266654	35.933197	0.112470
8973.969286	3.263788	231.152344	-38.476562
8973.971287	3.266804	231.152344	-38.476562
8973.975287	3.267102	231.152344	-38.476562
8973.977287	3.266724	231.152344	-38.476562
8973.979288	3.266606	35.932667	0.092403
8974.959341	3.266719	25.781250	-57.031250
8974.961342	3.267307	25.781250	-57.031250
8974.963344	3.267148	25.781250	-57.031250
8974.965343	3.266718	25.781250	-57.031250
8974.967342	3.266583	35.932419	0.321781
8976.053422	3.264833	231.250000	-39.550781
8976.055424	3.267195	231.250000	-39.550781
8976.057422	3.267588	231.250000	-39.550781
8976.059422	3.267331	231.250000	-39.550781
8976.061423	3.266954	35.936493	0.096817
8977.037469	3.266418	24.804687	-55.273437
8977.039471	3.267368	24.804687	-55.273437
8977.041471	3.267449	24.804687	-55.273437
8977.043471	3.266882	24.804687	-55.273437
8977.045471	3.266860	35.935467	0.119370
8978.145551	3.266285	231.054687	-40.234375
8978.147552	3.267223	231.054687	-40.234375
8978.149553	3.267202	231.054687	-40.234375
8978.151554	3.266791	231.054687	-40.234375
8978.153553	3.266622	35.932842	0.084880
8979.119586	3.267298	23.144531	-46.972656
8979.121588	3.267700	23.144531	-46.972656
8979.123588	3.267176	23.144531	-46.972656
8979.125588	3.266983	35.936813	0.118412
8980.223654	3.265646	230.761719	-38.867187
8980.225656	3.267076	230.761719	-38.867187
8980.227658	3.267329	230.761719	-38.867187
8980.229656	3.266841	230.761719	-38.867187
8980.231657	3.266678	35.933453	0.095745
8981.202234	3.266601	22.070312	-42.480469
8981.204236	3.267466	22.070312	-42.480469
8981.206236	3.267472	22.070312	-42.480469
8981.208235	3.266989	22.070312	-42.480469
8981.210234	3.266805	35.934853	0.118292
8982.304304	3.266766	230.175781	-38.085937
8982.306304	3.267495	230.175781	-38.085937
8982.308304	3.267390	230.175781	-38.085937
8982.310304	3.266918	230.175781	-38.085937
8982.312305	3.266737	35.934101	0.147515
8983.284874	3.266515	22.558594	-41.015625
8983.286880	3.267578	22.558594	-41.015625
8983.288879	3.267596	22.558594	-41.015625
8983.290879	3.267131	22.558594	-41.015625
8983.292880	3.267037	35.937408	0.117422
8984.392971	3.266742	229.101562	-38.378906
8984.394978	3.267637	229.101562	-38.378906
8984.396976	3.267611	229.101562	-38.378906
8984.398975	3.267219	229.101562	-38.378906
8984.400977	3.267113	35.938240	0.088412
8985.369037	3.265300	22.949219	-31.738281
8985.371041	3.267098	22.949219	-31.738281
8985.373040	3.267404	22.949219	-31.738281
8985.375040	3.266934	22.949219	-31.738281
8985.377040	3.266698	35.933678	0.117479
8986.475082	3.267558	231.054687	-37.011719
8986.477083	3.267404	231.054687	-37.011719
8986.479085	3.266987	231.054687	-37.011719
8986.485081	3.266856	35.935413	0.205302
8987.457654	3.266183	23.437500	-21.093750
8987.459658	3.267149	23.437500	-21.093750
8987.461657	3.267296	23.437500	-21.093750
8987.463656	3.266790	23.437500	-21.093750
8987.465656	3.266650	35.933155	0.116711
8988.553726	3.266592	231.640625	-37.011719
8988.555727	3.267325	231.640625	-37.011719
8988.557729	3.267309	231.640625	-37.011719
8988.559729	3.266791	231.640625	-37.011719
8988.561727	3.266692	35.933613	0.096871
8989.539766	3.265291	25.390625	-19.433594
8989.541768	3.265298	25.390625	-19.433594
8989.543767	3.267453	25.390625	-19.433594
8989.545767	3.267058	25.390625	-19.433594
8989.547768	3.266723	35.933952	0.118760
8990.633794	3.263645	233.593750	-36.035156
8990.637793	3.267404	233.593750	-36.035156
8990.639799	3.267342	233.593750	-36.035156
8990.641797	3.266781	233.593750	-36.035156
8990.643797	3.266760	35.934357	0.089666
8991.623840	3.265734	26.660156	-17.675781
8991.625841	3.267292	26.660156	-17.675781
8991.627842	3.267523	26.660156	-17.675781
8991.629843	3.267091	26.660156	-17.675781
8991.631841	3.266849	35.935341	0.117983
8992.717831	3.266251	236.328125	-34.570312
8992.719833	3.267384	236.328125	-34.570312
8992.721833	3.267474	236.328125	-34.570312
8992.723830	3.266973	236.328125	-34.570312
8992.725832	3.266823	35.935051	0.092611
8993.709888	3.267156	29.687500	-23.535156
8993.711888	3.267725	29.687500	-23.535156
8993.713891	3.267531	29.687500	-23.535156
8993.715892	3.267030	29.687500	-23.535156
8993.717890	3.266984	35.936825	0.115149
8994.798465	3.266326	236.328125	-34.472656
8994.800465	3.267588	236.328125	-34.472656
8994.802466	3.267704	236.328125	-34.472656
8994.804465	3.267207	236.328125	-34.472656
8994.806466	3.267068	35.937752	0.092437
8995.793050	3.267296	29.980469	-24.902344
8995.795052	3.267739	29.980469	-24.902344
8995.797052	3.267261	29.980469	-24.902344
8995.799053	3.267051	35.937565	0.114597
8996.885568	3.264746	235.742187	-35.546875
8996.887569	3.267251	235.742187	-35.546875
8996.889569	3.267287	235.742187	-35.546875
8996.891569	3.267483	235.742187	-35.546875
8996.893571	3.267112	35.938232	0.091312
8997.873644	3.263975	26.855469	-16.210937
8997.875644	3.266710	26.855469	-16.210937
8997.877670	3.267226	26.855469	-16.210937
8997.879671	3.266999	26.855469	-16.210937
8997.885671	3.266583	26.855469	-16.210937
8997.887672	3.266596	35.932552	0.117368
8998.965719	3.265346	237.207031	-35.253906
8998.967721	3.267152	237.207031	-35.253906
8998.969723	3.267462	237.207031	-35.253906
8998.971723	3.267040	237.207031	-35.253906
8998.973724	3.266745	35.934189	0.094127
8999.960261	3.265555	25.683594	-12.597656
8999.962266	3.267056	25.683594	-12.597656
8999.964265	3.267262	25.683594	-12.597656
8999.966265	3.266723	25.683594	-12.597656
8999.968265	3.266487	35.931355	0.111657
9001.050330	3.266420	236.328125	-35.644531
9001.052332	3.267289	236.328125	-35.644531
9001.054330	3.267315	236.328125	-35.644531
9001.056333	3.266875	236.328125	-35.644531
9001.058331	3.266750	35.934254	0.093564
9002.046397	3.267313	28.613281	-17.089844
9002.048399	3.266925	28.613281	-17.089844
9002.050399	3.266808	35.934891	0.113450
9003.133016	3.264807	236.621094	-35.742187
9003.135017	3.267412	236.621094	-35.742187
9003.137017	3.267852	236.621094	-35.742187
9003.139016	3.267541	236.621094	-35.742187
9003.141016	3.267148	35.938629	0.090401
9004.127083	3.267089	29.199219	-14.257812
9004.129086	3.267613	29.199219	-14.257812
9004.133083	3.266959	29.199219	-14.257812
9004.135085	3.266886	29.199219	-14.257812
9004.137084	3.266817	35.934990	0.113075
9005.215640	3.266121	238.769531	-35.058594
9005.217641	3.267386	238.769531	-35.058594
9005.219640	3.267328	238.769531	-35.058594
9005.221641	3.267020	238.769531	-35.058594
9005.223640	3.266796	35.934757	0.092038
9006.206558	3.265554	28.320312	-8.398437
9006.208559	3.267111	28.320312	-8.398437
9006.210557	3.267334	28.320312	-8.398437
9006.212557	3.266923	28.320312	-8.398437
9006.214560	3.266722	35.933941	0.119388
9007.299117	3.265614	236.914062	-36.816406
9007.301118	3.267308	236.914062	-36.816406
9007.303120	3.267618	236.914062	-36.816406
9007.305119	3.267175	236.914062	-36.816406
9007.307118	3.266891	35.935795	0.093596
9008.293121	3.266447	28.320312	-2.246094
9008.295123	3.267313	28.320312	-2.246094
9008.297123	3.267334	28.320312	-2.246094
9008.299124	3.266825	28.320312	-2.246094
9008.301124	3.266720	35.933914	0.112260
9009.381172	3.266217	236.816406	-36.914062
9009.385172	3.267786	236.816406	-36.914062
9009.387174	3.267221	236.816406	-36.914062
9009.389174	3.266992	35.936909	0.092894
9010.373248	3.265603	23.632812	9.863281
9010.375250	3.267123	23.632812	9.863281
9010.377248	3.267435	23.632812	9.863281
9010.379249	3.266911	23.632812	9.863281
9010.381249	3.266687	35.933563	0.116266
9011.469245	3.265996	236.621094	-37.695312
9011.471248	3.267137	236.621094	-37.695312
9011.473247	3.267311	236.621094	-37.695312
9011.475247	3.266815	236.621094	-37.695312
9011.477248	3.266605	35.932655	0.086355
9012.458203	3.267015	24.511719	2.929687
9012.460205	3.267723	24.511719	2.929687
9012.462205	3.267488	24.511719	2.929687
9012.464206	3.267026	24.511719	2.929687
9012.466205	3.266991	35.936901	0.112260
9013.551200	3.264570	234.472656	-39.160156
9013.553202	3.267082	234.472656	-39.160156
9013.555203	3.267515	234.472656	-39.160156
9013.557203	3.267214	234.472656	-39.160156
9013.559201	3.266858	35.935440	0.092780
9014.537272	3.264427	19.140625	12.695312
9014.539274	3.266955	19.140625	12.695312
9014.541277	3.267404	19.140625	12.695312
9014.543275	3.267210	19.140625	12.695312
9014.545275	3.266749	35.934242	0.113085
9015.637394	3.266625	232.714844	-40.527344
9015.639396	3.267468	232.714844	-40.527344
9015.641396	3.267502	232.714844	-40.527344
9015.643396	3.266937	232.714844	-40.527344
9015.645396	3.266840	35.935238	0.090613
9016.619465	3.266756	19.824219	5.859375
9016.621466	3.267529	19.824219	5.859375
9016.623467	3.267461	19.824219	5.859375
9016.625467	3.267035	19.824219	5.859375
9016.627467	3.266831	35.935139	0.110575
9017.721508	3.265894	233.398437	-41.210937
9017.723509	3.267437	233.398437	-41.210937
9017.725509	3.267658	233.398437	-41.210937
9017.727508	3.267234	233.398437	-41.210937
9017.729509	3.267038	35.937416	0.089387
9018.701589	2.478525	21.582031	-2.929687
9018.703592	3.267218	21.582031	-2.929687
9018.705590	3.267412	21.582031	-2.929687
9018.707590	3.266891	21.582031	-2.929687
9018.709591	3.266765	35.934410	0.111668
9019.804540	3.266412	234.179687	-41.992187
9019.806542	3.267683	234.179687	-41.992187
9019.808541	3.267856	234.179687	-41.992187
9019.810542	3.267308	234.179687	-41.992187
9019.814540	3.267193	35.939117	0.091873
9020.786564	3.267149	18.750000	7.031250
9020.788567	3.267321	18.750000	7.031250
9020.790566	3.266865	18.750000	7.031250
9020.792567	3.266602	35.932621	0.110109
9021.890631	3.267391	236.230469	-42.871094
9021.892631	3.267425	236.230469	-42.871094
9021.894633	3.266984	236.230469	-42.871094
9021.896632	3.266794	35.934738	0.090830
9022.871181	3.267450	23.828125	-7.617187
9022.873184	3.267381	23.828125	-7.617187
9022.875185	3.266983	23.828125	-7.617187
9022.879182	3.266831	35.935139	0.109095
9023.969757	3.265370	236.621094	-43.750000
9023.973759	3.267360	236.621094	-43.750000
9023.975760	3.266956	236.621094	-43.750000
9023.977766	3.266828	35.935112	0.096588
9024.951856	3.265714	25.390625	-11.523437
9024.953858	3.267430	25.390625	-11.523437
9024.955857	3.267725	25.390625	-11.523437
9024.957857	3.267195	25.390625	-11.523437
9024.959857	3.266963	35.936592	0.109238
9026.055897	3.267133	238.281250	-43.554687
9026.059899	3.266807	238.281250	-43.554687
9026.061900	3.266690	238.281250	-43.554687
9026.063899	3.266673	35.933403	0.093918
9027.038477	3.266949	21.093750	4.687500
9027.040479	3.267329	21.093750	4.687500
9027.042481	3.266987	21.093750	4.687500
9027.044479	3.266667	35.933338	0.111706
9028.132505	3.266098	238.378906	-42.773437
9028.134507	3.267624	238.378906	-42.773437
9028.136507	3.267966	238.378906	-42.773437
9028.138507	3.267393	238.378906	-42.773437
9028.140506	3.267213	35.939339	0.097920
9029.120533	3.266832	24.316406	0.878906
9029.122535	3.267583	24.316406	0.878906
9029.124535	3.267518	24.316406	0.878906
9029.126535	3.266948	24.316406	0.878906
9029.128536	3.266925	35.936176	0.149983
9030.217159	3.266605	238.085937	-41.992187
9030.219162	3.267362	238.085937	-41.992187
9030.221161	3.267329	238.085937	-41.992187
9030.223161	3.266821	238.085937	-41.992187
9030.225160	3.266728	35.934006	0.095317
9031.205176	3.266521	22.167969	13.378906
9031.207175	3.267356	22.167969	13.378906
9031.209179	3.267365	22.167969	13.378906
9031.211182	3.266848	22.167969	13.378906
9031.213186	3.266744	35.934181	0.110212
9032.301256	3.267189	237.890625	-40.722656
9032.303258	3.267292	237.890625	-40.722656
9032.305258	3.266836	237.890625	-40.722656
9032.307258	3.266829	35.935123	0.094974
9033.289335	2.520521	25.683594	8.984375
9033.291335	3.267102	25.683594	8.984375
9033.293335	3.267298	25.683594	8.984375
9033.295337	3.266840	25.683594	8.984375
9033.297335	3.266644	35.933083	0.112422
9034.379921	3.266689	239.257812	-39.746094
9034.381918	3.267284	239.257812	-39.746094
9034.383923	3.267210	239.257812	-39.746094
9034.385922	3.266740	239.257812	-39.746094
9034.387921	3.266636	35.932995	0.227993
9035.377972	3.267287	25.585937	15.527344
9035.379979	3.266840	25.585937	15.527344
9035.383979	3.266689	35.933578	0.107119
9036.464615	3.266492	238.867187	-39.550781
9036.466617	3.267292	238.867187	-39.550781
9036.468617	3.267329	238.867187	-39.550781
9036.470616	3.266802	238.867187	-39.550781
9036.472617	3.266617	35.932781	0.092871
9037.454642	3.266743	26.074219	18.847656
9037.456645	3.267550	26.074219	18.847656
9037.458644	3.267595	26.074219	18.847656
9037.460644	3.267075	26.074219	18.847656
9037.462646	3.266968	35.936646	0.113953
9038.547221	3.264790	239.160156	-39.160156
9038.549222	3.266876	239.160156	-39.160156
9038.551222	3.267252	239.160156	-39.160156
9038.553222	3.266985	239.160156	-39.160156
9038.555222	3.266680	35.933483	0.094670
9039.539268	3.266151	24.902344	25.390625
9039.541269	3.267193	24.902344	25.390625
9039.543270	3.267273	24.902344	25.390625
9039.545271	3.266779	24.902344	25.390625
9039.547270	3.266641	35.933048	0.110979
9040.629306	2.754389	240.625000	-38.867187
9040.631307	3.267619	240.625000	-38.867187
9040.633307	3.267527	240.625000	-38.867187
9040.635308	3.266985	240.625000	-38.867187
9040.637307	3.266970	35.936672	0.158940
9041.623381	3.266447	24.707031	28.515625
9041.625384	3.267287	24.707031	28.515625
9041.627382	3.267197	24.707031	28.515625
9041.629382	3.266778	24.707031	28.515625
9041.631387	3.266733	35.934067	0.108590
9042.713392	3.265825	241.015625	-38.671875
9042.715395	3.267182	241.015625	-38.671875
9042.717395	3.267422	241.015625	-38.671875
9042.719395	3.266866	241.015625	-38.671875
9042.721395	3.266675	35.933426	0.093831
9043.705498	3.265737	23.632812	32.226562
9043.707500	3.267338	23.632812	32.226562
9043.709499	3.267605	23.632812	32.226562
9043.711500	3.267123	23.632812	32.226562
9043.713502	3.266924	35.936165	0.110602
9044.797564	3.265700	241.894531	-39.062500
9044.799566	3.267358	241.894531	-39.062500
9044.801566	3.266923	241.894531	-39.062500
9044.803567	3.266690	35.933594	0.095442
9045.790116	3.266678	22.851562	36.035156
9045.792120	3.267395	22.851562	36.035156
9045.794119	3.267450	22.851562	36.035156
9045.796119	3.266885	22.851562	36.035156
9045.798118	3.266815	35.934971	0.107194
9046.880176	3.266181	242.578125	-39.257812
9046.882179	3.267425	242.578125	-39.257812
9046.884179	3.267590	242.578125	-39.257812
9046.886177	3.267035	242.578125	-39.257812
9046.888179	3.266845	35.935299	0.096813
9047.874202	3.266838	24.609375	30.957031
9047.876205	3.267414	24.609375	30.957031
9047.878203	3.267323	24.609375	30.957031
9047.880203	3.266996	24.609375	30.957031
9047.882204	3.266840	35.935238	0.108013
9048.964772	3.266009	241.308594	-40.722656
9048.966774	3.267543	241.308594	-40.722656
9048.968774	3.267901	241.308594	-40.722656
9048.970774	3.267292	241.308594	-40.722656
9048.972775	3.267106	35.938160	0.094075
9049.952814	3.266622	24.609375	25.781250
9049.954815	3.267317	24.609375	25.781250
9049.956814	3.267231	24.609375	25.781250
9049.958816	3.266654	24.609375	25.781250
9049.960817	3.266592	35.932507	0.165925
9051.049396	3.267466	243.457031	-41.601562
9051.051398	3.267777	243.457031	-41.601562
9051.053401	3.267251	243.457031	-41.601562
9051.055399	3.267077	35.937851	0.096838
9052.037422	3.266296	20.410156	38.964844
9052.039422	3.267176	20.410156	38.964844
9052.041423	3.267134	20.410156	38.964844
9052.043422	3.266652	20.410156	38.964844
9052.045422	3.266503	35.931530	0.106362
9053.127438	3.263597	242.578125	-42.480469
9053.129442	3.266923	242.578125	-42.480469
9053.131441	3.267565	242.578125	-42.480469
9053.133440	3.267314	242.578125	-42.480469
9053.135441	3.266952	242.578125	-42.480469
9053.137442	3.266828	35.935104	0.098405
9054.120012	3.266187	25.488281	25.097656
9054.122015	3.267108	25.488281	25.097656
9054.124016	3.267231	25.488281	25.097656
9054.126020	3.266732	25.488281	25.097656
9054.128018	3.266645	35.933090	0.108304
9055.216091	3.267346	240.625000	-44.140625
9055.218093	3.267332	240.625000	-44.140625
9055.220093	3.266852	240.625000	-44.140625
9055.222094	3.266745	35.934189	0.127940
9056.202147	3.265166	21.386719	34.472656
9056.204149	3.266977	21.386719	34.472656
9056.206149	3.267365	21.386719	34.472656
9056.208151	3.266964	21.386719	34.472656
9056.210149	3.266671	35.933384	0.107443
9057.300188	3.267256	241.015625	-45.312500
9057.302190	3.267446	241.015625	-45.312500
9057.304191	3.266968	241.015625	-45.312500
9057.306189	3.266787	35.934654	0.095898
9058.284761	3.266396	19.628906	40.332031
9058.286764	3.267308	19.628906	40.332031
9058.288766	3.267362	19.628906	40.332031
9058.290770	3.266875	19.628906	40.332031
9058.292770	3.266710	35.933811	0.104968
9059.384830	3.267099	242.187500	-45.507812
9059.386832	3.267444	242.187500	-45.507812
9059.388833	3.266972	242.187500	-45.507812
9059.390833	3.266709	35.933800	0.097079
9060.365814	3.266771	20.507812	39.062500
9060.367817	3.267516	20.507812	39.062500
9060.369816	3.267452	20.507812	39.062500
9060.373816	3.266787	20.507812	39.062500
9060.375822	3.266836	35.935192	0.119196
9061.467902	3.267051	239.160156	-45.605469
9061.469904	3.267586	239.160156	-45.605469
9061.471904	3.267485	239.160156	-45.605469
9061.473902	3.267006	239.160156	-45.605469
9061.475903	3.266969	35.936665	0.094615
9062.449953	3.267108	22.460937	37.011719
9062.451955	3.267673	22.460937	37.011719
9062.453954	3.267393	22.460937	37.011719
9062.455954	3.267059	22.460937	37.011719
9062.457954	3.266930	35.936230	0.104840
9063.548871	3.263930	239.355469	-45.507812
9063.550874	3.266744	239.355469	-45.507812
9063.552874	3.267183	239.355469	-45.507812
9063.554873	3.267049	239.355469	-45.507812
9063.556875	3.266576	239.355469	-45.507812
9063.558874	3.266611	35.932720	0.095027
9064.528893	3.264183	17.871094	52.050781
9064.530895	3.266866	17.871094	52.050781
9064.534907	3.267069	17.871094	52.050781
9064.536907	3.266728	17.871094	52.050781
9064.538908	3.266604	35.932648	0.108294
9065.632948	3.265113	240.332031	-45.214844
9065.634949	3.267359	240.332031	-45.214844
9065.636950	3.267751	240.332031	-45.214844
9065.638951	3.267506	240.332031	-45.214844
9065.640950	3.267093	35.938019	0.095296
9066.613034	3.267069	19.335937	45.507812
9066.615036	3.267384	19.335937	45.507812
9066.617036	3.267011	19.335937	45.507812
9066.619035	3.266737	35.934101	0.105602
9067.719609	3.267099	238.476562	-44.824219
9067.721630	3.267669	238.476562	-44.824219
9067.723631	3.267391	238.476562	-44.824219
9067.725632	3.267007	238.476562	-44.824219
9067.727631	3.266889	35.935776	0.450145
9068.695662	2.273052	17.382812	56.250000
9068.697661	3.267196	17.382812	56.250000
9068.699662	3.267251	17.382812	56.250000
9068.701661	3.266741	17.382812	56.250000
9068.703663	3.266636	35.932995	0.104818
9069.799713	3.266392	239.941406	-44.335937
9069.801715	3.267301	239.941406	-44.335937
9069.803714	3.267226	239.941406	-44.335937
9069.805715	3.266780	239.941406	-44.335937
9069.807716	3.266780	35.934582	0.090585
9070.779815	3.265314	15.332031	68.554687
9070.781818	3.267257	15.332031	68.554687
9070.783818	3.267624	15.332031	68.554687
9070.787817	3.266947	15.332031	68.554687
9070.789819	3.266832	35.935146	0.108696
9071.879850	3.266088	239.746094	-43.750000
9071.881853	3.267627	239.746094	-43.750000
9071.883853	3.267844	239.746094	-43.750000
9071.885854	3.267348	239.746094	-43.750000
9071.887854	3.267126	35.938381	0.094918
9072.865913	3.266705	18.164062	69.042969
9072.867920	3.267347	18.164062	69.042969
9072.869920	3.267177	18.164062	69.042969
9072.871922	3.266778	18.164062	69.042969
9072.873922	3.266760	35.934357	0.230861
9073.961955	3.264344	240.625000	-43.261719
9073.963958	3.267011	240.625000	-43.261719
9073.965972	3.267598	240.625000	-43.261719
9073.967973	3.267342	240.625000	-43.261719
9073.969972	3.267015	240.625000	-43.261719
9073.971971	3.266823	35.935051	0.094989
9074.952017	3.267364	20.312500	69.433594
9074.954020	3.267189	20.312500	69.433594
9074.956019	3.266716	20.312500	69.433594
9074.958019	3.266655	35.933208	0.414344
9076.046625	3.266099	244.433594	-42.480469
9076.048627	3.267456	244.433594	-42.480469
9076.050628	3.267703	244.433594	-42.480469
9076.052631	3.267159	244.433594	-42.480469
9076.056633	3.266923	35.936157	0.089927
9077.034661	3.267334	20.996094	73.046875
9077.036661	3.267508	20.996094	73.046875
9077.038662	3.267054	20.996094	73.046875
9077.040661	3.266906	35.935970	0.106532
9078.126692	3.264535	242.382812	-42.187500
9078.128693	3.266920	242.382812	-42.187500
9078.130693	3.267412	242.382812	-42.187500
9078.132693	3.267138	242.382812	-42.187500
9078.134694	3.266693	35.933624	0.094682
9079.116727	3.266187	21.679687	75.585937
9079.118728	3.267387	21.679687	75.585937
9079.120726	3.267625	21.679687	75.585937
9079.122729	3.267023	21.679687	75.585937
9079.124728	3.267025	35.937275	0.106946
9080.210740	3.266959	242.968750	-42.089844
9080.212742	3.267023	242.968750	-42.089844
9080.214740	3.266908	242.968750	-42.089844
9080.216741	3.266600	35.932594	0.092739
9081.200801	3.264830	22.851562	75.585937
9081.202800	3.267195	22.851562	75.585937
9081.204800	3.267627	22.851562	75.585937
9081.206802	3.267316	22.851562	75.585937
9081.208800	3.266994	35.936928	0.105842
9082.291369	3.266386	247.656250	-41.210937
9082.293368	3.267334	247.656250	-41.210937
9082.295369	3.267353	247.656250	-41.210937
9082.297370	3.266831	247.656250	-41.210937
9082.299369	3.266725	35.933979	0.089027
9083.285399	3.265878	20.214844	84.082031
9083.287400	3.267175	20.214844	84.082031
9083.289401	3.267280	20.214844	84.082031
9083.291401	3.266782	20.214844	84.082031
9083.293401	3.266631	35.932941	0.104090
9084.373535	3.266646	246.386719	-40.917969
9084.375537	3.267329	246.386719	-40.917969
9084.377537	3.267256	246.386719	-40.917969
9084.379536	3.266711	246.386719	-40.917969
9084.381536	3.266684	35.933525	0.130506
9085.370082	3.266794	24.023437	74.902344
9085.372086	3.267425	24.023437	74.902344
9085.374084	3.267273	24.023437	74.902344
9085.376085	3.266743	24.023437	74.902344
9085.378085	3.266728	35.934006	0.105507
9086.460112	3.267548	247.363281	-41.113281
9086.462113	3.267495	247.363281	-41.113281
9086.464112	3.266959	247.363281	-41.113281
9086.468112	3.266908	35.935989	0.090824
9087.450170	3.266629	22.656250	80.273437
9087.452172	3.267720	22.656250	80.273437
9087.454172	3.267820	22.656250	80.273437
9087.456172	3.267754	22.656250	80.273437
9087.458173	3.267123	35.938354	0.105599
9088.540215	3.266836	247.265625	-41.210937
9088.542218	3.267483	247.265625	-41.210937
9088.544216	3.267326	247.265625	-41.210937
9088.546217	3.266892	247.265625	-41.210937
9088.548218	3.266807	35.934872	0.095034
9089.532857	3.266156	21.777344	84.375000
9089.534861	3.267336	21.777344	84.375000
9089.536862	3.267469	21.777344	84.375000
9089.538863	3.266989	21.777344	84.375000
9089.540864	3.266811	35.934925	0.104107
9090.622959	3.265343	245.605469	-42.089844
9090.624959	3.267016	245.605469	-42.089844
9090.626959	3.267387	245.605469	-42.089844
9090.628960	3.266923	245.605469	-42.089844
9090.630960	3.266640	35.933041	0.094254
9091.615007	3.264894	23.339844	80.761719
9091.617010	3.266947	23.339844	80.761719
9091.619010	3.267400	23.339844	80.761719
9091.621010	3.266983	23.339844	80.761719
9091.623009	3.266764	35.934402	0.103210
9092.709986	3.267442	243.457031	-42.480469
9092.711989	3.267383	243.457031	-42.480469
9092.713988	3.266973	243.457031	-42.480469
9092.715988	3.266891	35.935795	0.094412
9093.700039	3.267158	20.800781	87.792969
9093.702042	3.267462	20.800781	87.792969
9093.704043	3.267092	20.800781	87.792969
9093.706043	3.266800	35.934803	0.102780
9094.792610	3.267169	245.410156	-42.968750
9094.794612	3.267131	245.410156	-42.968750
9094.796612	3.266742	245.410156	-42.968750
9094.798611	3.266587	35.932453	0.092783
9095.781192	3.266169	16.992187	96.972656
9095.783192	3.267545	16.992187	96.972656
9095.785192	3.267800	16.992187	96.972656
9095.787193	3.267168	16.992187	96.972656
9095.789192	3.266985	35.936832	0.102236
9096.873219	3.265111	242.382812	-43.945312
9096.875221	3.267124	242.382812	-43.945312
9096.877221	3.267599	242.382812	-43.945312
9096.879220	3.267226	242.382812	-43.945312
9096.881221	3.266915	35.936062	0.093550
9097.863275	3.266537	18.554687	89.843750
9097.867274	3.267711	18.554687	89.843750
9097.869276	3.267149	18.554687	89.843750
9097.871278	3.266968	35.936653	0.102836
9098.959869	3.267000	240.625000	-44.726562
9098.961870	3.267403	240.625000	-44.726562
9098.963870	3.267097	240.625000	-44.726562
9098.965870	3.266807	35.934872	0.092239
9099.945917	3.267471	14.843750	97.167969
9099.947919	3.267492	14.843750	97.167969
9099.949919	3.266971	14.843750	97.167969
9099.951917	3.266826	35.935085	0.102977
9101.041952	3.264991	239.453125	-45.312500
9101.043953	3.266978	239.453125	-45.312500
9101.047953	3.267013	239.453125	-45.312500
9101.049954	3.266711	239.453125	-45.312500
9101.051953	3.266653	35.933182	0.092202
9102.026017	3.264935	14.843750	93.457031
9102.028019	3.267021	14.843750	93.457031
9102.030019	3.267384	14.843750	93.457031
9102.032019	3.267021	14.843750	93.457031
9102.034019	3.266803	35.934830	0.102428
9103.126128	3.265850	239.746094	-45.898437
9103.128130	3.267423	239.746094	-45.898437
9103.130129	3.267760	239.746094	-45.898437
9103.132130	3.267223	239.746094	-45.898437
9103.134130	3.266985	35.936832	0.093417
9104.108228	3.266807	17.578125	81.835937
9104.110227	3.267464	17.578125	81.835937
9104.112229	3.267284	17.578125	81.835937
9104.114230	3.266800	17.578125	81.835937
9104.116229	3.266834	35.935173	0.271060
9105.210237	3.266141	240.332031	-46.679687
9105.212241	3.267498	240.332031	-46.679687
9105.214240	3.267611	240.332031	-46.679687
9105.216240	3.267079	240.332031	-46.679687
9105.218243	3.266881	35.935696	0.093832
9106.190289	3.266275	14.257812	89.257812
9106.192291	3.267383	14.257812	89.257812
9106.194290	3.267647	14.257812	89.257812
9106.196292	3.266986	14.257812	89.257812
9106.198290	3.266931	35.936237	0.099825
9107.294353	3.266228	241.796875	-47.460937
9107.296356	3.267221	241.796875	-47.460937
9107.298355	3.267248	241.796875	-47.460937
9107.300354	3.266841	241.796875	-47.460937
9107.302354	3.266680	35.933483	0.093360
9108.272407	3.265022	17.871094	79.101562
9108.274409	3.267037	17.871094	79.101562
9108.276409	3.267372	17.871094	79.101562
9108.278409	3.267031	17.871094	79.101562
9108.280408	3.266732	35.934048	0.098410
9109.375344	3.265179	243.261719	-47.949219
9109.377344	3.267086	243.261719	-47.949219
9109.379343	3.267511	243.261719	-47.949219
9109.381344	3.267060	243.261719	-47.949219
9109.383344	3.266725	35.933979	0.095959
9110.357393	3.267567	14.648437	87.304687
9110.359395	3.267949	14.648437	87.304687
9110.361395	3.267465	14.648437	87.304687
9110.363394	3.267170	35.938869	0.103286
9111.459455	3.266704	241.015625	-48.632812
9111.461457	3.267367	241.015625	-48.632812
9111.463456	3.267147	241.015625	-48.632812
9111.465457	3.266798	241.015625	-48.632812
9111.467459	3.266741	35.934155	0.094005
9112.439471	3.265559	18.847656	81.250000
9112.441473	3.266904	18.847656	81.250000
9112.443472	3.267217	18.847656	81.250000
9112.445473	3.266748	18.847656	81.250000
9112.447473	3.266446	35.930901	0.100895
9113.543584	3.267277	242.089844	-48.730469
9113.545583	3.267443	242.089844	-48.730469
9113.547582	3.266880	242.089844	-48.730469
9113.549583	3.266782	35.934597	0.095440
9114.521605	3.264416	18.945312	82.714844
9114.523609	3.267016	18.945312	82.714844
9114.525609	3.267586	18.945312	82.714844
9114.527613	3.267270	18.945312	82.714844
9114.529612	3.266949	35.936440	0.105299
9115.623661	3.266816	242.675781	-48.730469
9115.625663	3.267762	242.675781	-48.730469
9115.627663	3.267895	242.675781	-48.730469
9115.629664	3.267331	242.675781	-48.730469
9115.631663	3.267141	35.938549	0.096939
9116.607698	3.266391	18.164062	87.011719
9116.609698	3.267357	18.164062	87.011719
9116.611699	3.267303	18.164062	87.011719
9116.613699	3.266841	18.164062	87.011719
9116.615699	3.266691	35.933605	0.101613
9117.705751	3.265485	246.484375	-48.144531
9117.707752	3.267165	246.484375	-48.144531
9117.709752	3.267421	246.484375	-48.144531
9117.711754	3.266964	246.484375	-48.144531
9117.713751	3.266807	35.934872	0.097124
9118.693804	3.267134	20.703125	81.445312
9118.695804	3.267411	20.703125	81.445312
9118.697804	3.266980	20.703125	81.445312
9118.699805	3.266773	35.934502	0.099620
9119.786352	3.265134	244.140625	-47.949219
9119.788351	3.267051	244.140625	-47.949219
9119.790351	3.267391	244.140625	-47.949219
9119.792352	3.267052	244.140625	-47.949219
9119.794354	3.266790	35.934685	0.097914
9120.774401	3.265045	20.605469	84.179687
9120.776402	3.267191	20.605469	84.179687
9120.778403	3.267616	20.605469	84.179687
9120.780403	3.267210	20.605469	84.179687
9120.782402	3.266828	35.935112	0.103232
9121.868956	3.264612	243.359375	-47.460937
9121.870958	3.267032	243.359375	-47.460937
9121.872958	3.267451	243.359375	-47.460937
9121.874957	3.267147	243.359375	-47.460937
9121.876956	3.266746	35.934208	0.094092
9122.859014	2.848844	18.750000	89.160156
9122.861017	3.267423	18.750000	89.160156
9122.865015	3.267004	18.750000	89.160156
9122.867020	3.266837	18.750000	89.160156
9122.869021	3.266870	35.935566	0.096766
9123.953037	3.265284	241.601562	-46.972656
9123.955037	3.267280	241.601562	-46.972656
9123.957036	3.267601	241.601562	-46.972656
9123.959037	3.267119	241.601562	-46.972656
9123.961037	3.266882	35.935707	0.093321
9124.941084	3.265462	20.507812	89.160156
9124.943087	3.267578	20.507812	89.160156
9124.945088	3.268003	20.507812	89.160156
9124.947086	3.267429	20.507812	89.160156
9124.949086	3.267273	35.940006	0.100097
9126.035169	3.266027	246.093750	-46.582031
9126.037171	3.267472	246.093750	-46.582031
9126.039172	3.267720	246.093750	-46.582031
9126.041171	3.267268	246.093750	-46.582031
9126.043171	3.266944	35.936382	0.094048
9127.022129	3.265853	20.996094	90.234375
9127.024131	3.267590	20.996094	90.234375
9127.026132	3.267910	20.996094	90.234375
9127.028131	3.267352	20.996094	90.234375
9127.030131	3.267061	35.937664	0.099877
9128.118184	3.263959	246.289062	-46.191406
9128.120188	3.266836	246.289062	-46.191406
9128.122187	3.267395	246.289062	-46.191406
9128.124187	3.267152	246.289062	-46.191406
9128.126186	3.266740	246.289062	-46.191406
9128.128186	3.266664	35.933304	0.096985
9129.110223	3.267385	17.578125	101.367187
9129.112224	3.267616	17.578125	101.367187
9129.114223	3.267126	17.578125	101.367187
9129.116224	3.266837	35.935207	0.095585
9130.202310	3.266340	244.628906	-45.996094
9130.204312	3.267297	244.628906	-45.996094
9130.206312	3.267336	244.628906	-45.996094
9130.210310	3.266782	244.628906	-45.996094
9130.212313	3.266724	35.933968	0.093778
9131.190391	3.264722	17.968750	101.269531
9131.192392	3.267155	17.968750	101.269531
9131.194393	3.267665	17.968750	101.269531
9131.196394	3.267331	17.968750	101.269531
9131.198394	3.266877	35.935650	0.099727
9132.284453	3.265739	246.972656	-46.191406
9132.286456	3.267404	246.972656	-46.191406
9132.288455	3.267705	246.972656	-46.191406
9132.290455	3.267707	246.972656	-46.191406
9132.292457	3.267013	35.937141	0.096290
9133.275427	3.267000	17.675781	103.027344
9133.277427	3.267303	17.675781	103.027344
9133.279426	3.266944	17.675781	103.027344
9133.281427	3.266700	35.933704	0.096236
9134.369507	3.267269	246.484375	-46.582031
9134.371510	3.267464	246.484375	-46.582031
9134.373509	3.267012	246.484375	-46.582031
9134.375510	3.266892	35.935810	0.093260
9135.356509	3.265922	17.773437	102.734375
9135.358509	3.267612	17.773437	102.734375
9135.360511	3.267863	17.773437	102.734375
9135.362510	3.267313	17.773437	102.734375
9135.364510	3.267141	35.938549	0.099436
9136.452537	3.267059	242.382812	-46.972656
9136.454559	3.267632	242.382812	-46.972656
9136.458561	3.266966	242.382812	-46.972656
9136.460563	3.266944	242.382812	-46.972656
9136.462565	3.266962	35.936584	0.094487
9137.438587	3.266037	19.140625	100.585937
9137.440588	3.267284	19.140625	100.585937
9137.442588	3.267402	19.140625	100.585937
9137.444588	3.266957	19.140625	100.585937
9137.446590	3.266768	35.934448	0.100787
9138.536668	3.267305	242.089844	-47.558594
9138.538670	3.266888	242.089844	-47.558594
9138.540669	3.266664	35.933304	0.094272
9139.520709	3.266282	19.628906	98.632812
9139.522709	3.267163	19.628906	98.632812
9139.524710	3.267249	19.628906	98.632812
9139.526710	3.266734	19.628906	98.632812
9139.528709	3.266551	35.932064	0.099069
9140.614776	3.265808	245.019531	-47.851562
9140.616778	3.267346	245.019531	-47.851562
9140.618777	3.267681	245.019531	-47.851562
9140.620777	3.267138	245.019531	-47.851562
9140.622776	3.266958	35.936539	0.096026
9141.604846	3.265454	18.066406	102.246094
9141.606850	3.267258	18.066406	102.246094
9141.610849	3.267143	18.066406	102.246094
9141.612849	3.266934	18.066406	102.246094
9141.614849	3.266847	35.935314	0.097665
9142.700848	3.266886	241.699219	-48.925781
9142.702848	3.267511	241.699219	-48.925781
9142.704850	3.267217	241.699219	-48.925781
9142.706849	3.266860	241.699219	-48.925781
9142.710847	3.266765	35.934410	0.095108
9143.686917	3.266690	20.800781	94.335937
9143.688918	3.267328	20.800781	94.335937
9143.690919	3.267084	20.800781	94.335937
9143.692918	3.266693	20.800781	94.335937
9143.694921	3.266699	35.933685	0.094791
9144.782932	3.266373	242.773437	-49.414062
9144.784934	3.267380	242.773437	-49.414062
9144.786936	3.267558	242.773437	-49.414062
9144.788935	3.267502	242.773437	-49.414062
9144.790934	3.266873	35.935600	0.095217
9145.766994	3.264261	17.968750	102.441406
9145.768994	3.266830	17.968750	102.441406
9145.770994	3.267240	17.968750	102.441406
9145.772994	3.266935	17.968750	102.441406
9145.774994	3.266652	35.933170	0.098852
9146.867096	3.266929	244.238281	-49.414062
9146.869098	3.267745	244.238281	-49.414062
9146.871098	3.267581	244.238281	-49.414062
9146.873099	3.267121	244.238281	-49.414062
9146.875098	3.267142	35.938560	0.095642
9147.851133	3.266637	17.089844	104.980469
9147.853135	3.266678	17.089844	104.980469
9147.857133	3.266877	17.089844	104.980469
9147.859135	3.266870	17.089844	104.980469
9147.863134	3.266769	35.934456	0.097266
9148.951211	3.265700	244.335937	-49.804687
9148.953214	3.267085	244.335937	-49.804687
9148.955215	3.267325	244.335937	-49.804687
9148.957213	3.266860	244.335937	-49.804687
9148.959214	3.266708	35.933792	0.097300
9149.937222	3.267302	17.382812	106.933594
9149.939225	3.267134	17.382812	106.933594
9149.941225	3.266730	17.382812	106.933594
9149.943225	3.266697	35.933670	0.215008
