time (s)	coil I (A)	last det (V)	int current (uC)
7491.052580	3.267168	237.695312	-38.769531
7491.054580	3.267284	237.695312	-38.769531
7491.056581	3.266984	35.936825	0.115863
7492.050623	3.265672	22.949219	54.785156
7492.052624	3.267205	22.949219	54.785156
7492.054625	3.266875	22.949219	54.785156
7492.056625	3.266714	35.933853	0.089001
7493.134685	3.267255	241.308594	-36.816406
7493.136688	3.267238	241.308594	-36.816406
7493.138689	3.266964	35.936607	0.115747
7494.136726	3.265999	28.710937	54.589844
7494.138729	3.267172	28.710937	54.589844
7494.140728	3.266798	28.710937	54.589844
7494.142730	3.266725	35.933979	0.089637
7495.214850	3.265784	242.578125	-34.570312
7495.216851	3.267043	242.578125	-34.570312
7495.218849	3.266742	242.578125	-34.570312
7495.220849	3.266711	35.933826	0.115296
7496.218868	3.267100	30.761719	52.636719
7496.220870	3.266730	30.761719	52.636719
7496.224867	3.266583	35.932419	0.089247
7497.301411	3.265547	243.261719	-37.988281
7497.303412	3.267429	243.261719	-37.988281
7497.305412	3.267260	243.261719	-37.988281
7497.307411	3.267066	35.937725	0.116892
7498.295462	3.265756	28.515625	43.261719
7498.297463	3.267231	28.515625	43.261719
7498.299463	3.266909	28.515625	43.261719
7498.301463	3.266849	35.935341	0.095317
7499.387538	3.267031	242.578125	-40.722656
7499.389543	3.266608	242.578125	-40.722656
7499.391540	3.266455	35.931011	0.110806
7500.384114	3.267197	23.046875	33.789062
7500.386114	3.267450	23.046875	33.789062
7500.388115	3.267076	23.046875	33.789062
7500.390114	3.267060	35.937656	0.384638
7501.468200	3.267308	240.039062	-39.550781
7501.470204	3.267012	240.039062	-39.550781
7501.472202	3.266808	35.934891	0.119100
7502.462756	3.266571	23.046875	44.921875
7502.466758	3.266977	23.046875	44.921875
7502.468759	3.266882	23.046875	44.921875
7502.470760	3.266850	35.935352	0.092518
7503.550800	3.265163	238.574219	-38.085937
7503.552804	3.267131	238.574219	-38.085937
7503.554807	3.267048	238.574219	-38.085937
7503.556808	3.266791	35.934704	0.116601
7504.549401	3.267267	24.804687	52.832031
7504.551401	3.267047	24.804687	52.832031
7504.553401	3.266902	35.935928	0.090959
7505.635914	3.267071	233.496094	-36.718750
7505.637916	3.266738	233.496094	-36.718750
7505.639916	3.266593	35.932526	0.232501
7506.633900	2.976483	25.000000	48.046875
7506.635902	3.267338	25.000000	48.046875
7506.637903	3.267088	25.000000	48.046875
7506.639902	3.266953	35.936485	0.088339
7507.714469	3.265970	236.523437	-36.328125
7507.716471	3.267106	236.523437	-36.328125
7507.718472	3.266764	236.523437	-36.328125
7507.720474	3.266621	35.932835	0.116935
7508.714537	3.264441	25.390625	44.042969
7508.716541	3.267029	25.390625	44.042969
7508.718539	3.267150	25.390625	44.042969
7508.720541	3.266748	35.934223	0.091457
7509.794612	3.264915	239.550781	-36.328125
7509.796614	3.266892	239.550781	-36.328125
7509.798614	3.266795	239.550781	-36.328125
7509.800613	3.266624	35.932861	0.117542
7510.806680	3.266210	23.925781	33.300781
7510.808681	3.267014	23.925781	33.300781
7510.810683	3.266696	23.925781	33.300781
7510.812683	3.266527	35.931801	0.088599
7511.882737	3.267497	240.429687	-36.230469
7511.884738	3.267182	240.429687	-36.230469
7511.886738	3.267099	35.938091	0.112803
7512.887317	3.264372	23.144531	29.589844
7512.889320	3.267029	23.144531	29.589844
7512.891323	3.267096	23.144531	29.589844
7512.893320	3.266827	35.935097	0.087847
7513.963369	3.265437	234.765625	-35.937500
7513.965370	3.267348	234.765625	-35.937500
7513.969368	3.267152	234.765625	-35.937500
7513.971372	3.267061	35.937664	0.117039
7514.969410	3.264858	24.609375	38.769531
7514.971410	3.266879	24.609375	38.769531
7514.973410	3.266818	24.609375	38.769531
7514.975411	3.266582	35.932400	0.090049
7516.052020	3.266933	230.664062	-35.546875
7516.054022	3.266670	230.664062	-35.546875
7516.056023	3.266450	35.930946	0.112516
7517.052081	3.264839	21.875000	27.832031
7517.054082	3.267222	21.875000	27.832031
7517.058082	3.267023	21.875000	27.832031
7517.060082	3.266871	35.935581	0.090125
7518.132168	3.263961	231.640625	-36.328125
7518.134169	3.266764	231.640625	-36.328125
7518.136170	3.267004	231.640625	-36.328125
7518.138170	3.266604	231.640625	-36.328125
7518.140169	3.266564	35.932205	0.115982
7519.138213	3.267007	23.046875	25.976562
7519.140214	3.266726	23.046875	25.976562
7519.142214	3.266673	35.933403	0.090121
7520.218840	3.266410	236.035156	-38.085937
7520.220841	3.267182	236.035156	-38.085937
7520.222843	3.266840	236.035156	-38.085937
7520.224843	3.266703	35.933731	0.115904
7521.218860	3.265986	25.390625	21.093750
7521.220862	3.267231	25.390625	21.093750
7521.222860	3.266848	25.390625	21.093750
7521.224862	3.266761	35.934368	0.090773
7522.302891	3.266887	231.445312	-37.402344
7522.304892	3.267159	231.445312	-37.402344
7522.306893	3.266876	231.445312	-37.402344
7522.308893	3.266811	35.934925	0.115399
7523.300941	3.265294	27.050781	12.695312
7523.302943	3.266860	27.050781	12.695312
7523.304943	3.266634	27.050781	12.695312
7523.306943	3.266495	35.931442	0.089865
7524.380993	3.265359	240.527344	-37.011719
7524.382994	3.267365	240.527344	-37.011719
7524.384994	3.267240	240.527344	-37.011719
7524.386994	3.267020	35.937222	0.117861
7525.385049	3.266304	27.246094	4.492187
7525.387051	3.266984	27.246094	4.492187
7525.389055	3.266602	27.246094	4.492187
7525.391053	3.266596	35.932560	0.091141
7526.463119	3.264390	233.398437	-31.738281
7526.465122	3.266777	233.398437	-31.738281
7526.467122	3.266820	233.398437	-31.738281
7526.469122	3.266534	35.931870	0.116899
7527.475187	3.266222	27.246094	8.105469
7527.477187	3.267316	27.246094	8.105469
7527.479189	3.266947	27.246094	8.105469
7527.481189	3.266794	35.934731	0.085110
7528.543196	3.266027	234.375000	-32.910156
7528.545199	3.267140	234.375000	-32.910156
7528.547199	3.266786	234.375000	-32.910156
7528.549198	3.266596	35.932552	0.118181
7529.553270	3.263864	24.902344	16.503906
7529.555270	3.266916	24.902344	16.503906
7529.557270	3.267113	24.902344	16.503906
7529.559271	3.266815	24.902344	16.503906
7529.561269	3.266757	35.934326	0.093505
7530.631359	3.267232	226.757812	-34.082031
7530.633360	3.267205	226.757812	-34.082031
7530.635360	3.266872	35.935593	0.113319
7531.637398	3.265559	22.949219	15.429687
7531.639399	3.266918	22.949219	15.429687
7531.641403	3.266700	22.949219	15.429687
7531.643401	3.266507	35.931576	0.087589
7532.716398	3.266414	226.171875	-35.546875
7532.718400	3.267114	226.171875	-35.546875
7532.720401	3.266707	226.171875	-35.546875
7532.722402	3.266613	35.932747	0.124393
7533.722426	3.266735	24.609375	-1.464844
7533.724427	3.267040	24.609375	-1.464844
7533.726426	3.266677	24.609375	-1.464844
7533.728427	3.266584	35.932426	0.087129
7534.799003	3.266915	229.785156	-36.523437
7534.801005	3.267406	229.785156	-36.523437
7534.803006	3.266964	229.785156	-36.523437
7534.805007	3.266872	35.935593	0.250037
7535.803028	3.265869	25.097656	-15.625000
7535.805029	3.267259	25.097656	-15.625000
7535.807029	3.267033	25.097656	-15.625000
7535.809029	3.266940	35.936344	0.090686
7536.881055	3.266211	229.882812	-33.007812
7536.883056	3.267433	229.882812	-33.007812
7536.885058	3.267010	229.882812	-33.007812
7536.887057	3.266911	35.936016	0.115723
7537.893082	3.267197	27.929687	-5.566406
7537.895084	3.266940	27.929687	-5.566406
7537.897084	3.266767	35.934441	0.086245
7538.965676	3.267011	227.148437	-30.175781
7538.967677	3.267064	227.148437	-30.175781
7538.969676	3.266704	35.933746	0.285358
7539.973712	3.264325	28.808594	4.785156
7539.975714	3.266721	28.808594	4.785156
7539.977715	3.266879	28.808594	4.785156
7539.979713	3.266637	35.933002	0.087568
7541.043750	3.266784	233.203125	-32.421875
7541.045751	3.266799	233.203125	-32.421875
7541.047753	3.266551	35.932064	0.109707
7542.058285	3.142795	25.585937	1.074219
7542.060287	3.266948	25.585937	1.074219
7542.062288	3.266629	25.585937	1.074219
7542.064287	3.266583	35.932419	0.084886
7543.128854	3.264822	222.851562	-32.812500
7543.130855	3.266824	222.851562	-32.812500
7543.132857	3.266794	222.851562	-32.812500
7543.134855	3.266601	35.932613	0.115029
7544.140906	3.267151	24.023437	2.929687
7544.142908	3.266839	24.023437	2.929687
7544.144909	3.266732	35.934048	0.087162
7545.210958	3.264365	222.460937	-33.203125
7545.212959	3.266877	222.460937	-33.203125
7545.214960	3.267005	222.460937	-33.203125
7545.216960	3.266666	35.933331	0.118909
7546.223009	3.267063	22.851562	-3.027344
7546.225013	3.266732	22.851562	-3.027344
7546.227013	3.266622	35.932842	0.085808
7547.297025	3.263440	221.972656	-33.300781
7547.299027	3.266846	221.972656	-33.300781
7547.301026	3.267226	221.972656	-33.300781
7547.303026	3.266769	221.972656	-33.300781
7547.305028	3.266689	35.933578	0.114825
7548.301059	3.266479	23.437500	-6.250000
7548.303061	3.267338	23.437500	-6.250000
7548.305060	3.266897	23.437500	-6.250000
7548.307061	3.266791	35.934696	0.090270
7549.388039	3.266965	224.511719	-33.496094
7549.390041	3.266889	35.935776	0.414646
7550.386664	3.265437	23.535156	-14.941406
7550.388666	3.267064	23.535156	-14.941406
7550.390666	3.266968	23.535156	-14.941406
7550.392666	3.266731	35.934040	0.106133
7551.464724	3.263590	220.214844	-33.496094
7551.466727	3.266845	220.214844	-33.496094
7551.468731	3.267231	220.214844	-33.496094
7551.470730	3.266797	220.214844	-33.496094
7551.472730	3.266759	35.934349	0.110082
7552.468776	3.265013	21.191406	-29.589844
7552.470778	3.267013	21.191406	-29.589844
7552.472778	3.266915	21.191406	-29.589844
7552.474777	3.266685	35.933537	0.089380
7553.546851	3.264419	219.433594	-33.105469
7553.548853	3.266949	219.433594	-33.105469
7553.550851	3.267048	219.433594	-33.105469
7553.552851	3.266641	35.933056	0.117546
7554.552881	3.265612	21.386719	-27.246094
7554.554882	3.267243	21.386719	-27.246094
7554.556883	3.267009	21.386719	-27.246094
7554.558882	3.266869	35.935555	0.090164
7555.632939	3.267286	218.066406	-32.226562
7555.634942	3.266906	218.066406	-32.226562
7555.636941	3.266865	35.935509	0.113528
7556.640984	3.266015	19.335937	-40.429687
7556.642987	3.267330	19.335937	-40.429687
7556.644986	3.267129	19.335937	-40.429687
7556.646987	3.266940	35.936344	0.087643
7557.715469	3.267336	218.945312	-31.640625
7557.717472	3.267142	218.945312	-31.640625
7557.719472	3.267090	35.937992	0.118980
7558.725508	3.266425	21.582031	-37.500000
7558.727508	3.267076	21.582031	-37.500000
7558.729510	3.266660	21.582031	-37.500000
7558.731508	3.266623	35.932854	0.087253
7559.793603	3.265113	220.898437	-29.980469
7559.795606	3.266948	220.898437	-29.980469
7559.797606	3.266807	220.898437	-29.980469
7559.799606	3.266608	35.932682	0.114905
7560.811632	3.266367	24.414062	-42.285156
7560.813631	3.267315	24.414062	-42.285156
7560.815631	3.266887	24.414062	-42.285156
7560.817632	3.266791	35.934704	0.085817
7561.871687	3.265038	228.027344	-28.906250
7561.873691	3.267029	228.027344	-28.906250
7561.875691	3.266880	228.027344	-28.906250
7561.879687	3.266606	35.932667	0.120518
7562.891740	3.266861	28.027344	-37.500000
7562.893743	3.267488	28.027344	-37.500000
7562.895743	3.267046	28.027344	-37.500000
7562.897740	3.267039	35.937424	0.090562
7563.957766	3.265578	229.296875	-28.906250
7563.959768	3.267268	229.296875	-28.906250
7563.961769	3.267138	229.296875	-28.906250
7563.963767	3.266898	35.935875	0.118843
7564.972327	3.263539	26.464844	-53.222656
7564.974329	3.266815	26.464844	-53.222656
7564.976329	3.267176	26.464844	-53.222656
7564.978330	3.266728	26.464844	-53.222656
7564.980328	3.266674	35.933411	0.090730
7566.044373	3.264684	223.535156	-31.054687
7566.046377	3.266871	223.535156	-31.054687
7566.048377	3.266953	223.535156	-31.054687
7566.050375	3.266638	35.933022	0.116401
7567.050427	3.265627	25.390625	-54.394531
7567.052428	3.266990	25.390625	-54.394531
7567.058427	3.266559	25.390625	-54.394531
7567.060430	3.266553	35.932083	0.091110
7568.130497	3.265130	218.359375	-32.812500
7568.132499	3.266847	218.359375	-32.812500
7568.134498	3.266869	218.359375	-32.812500
7568.136499	3.266504	35.931541	0.113259
7569.134551	3.265427	25.000000	-45.019531
7569.136552	3.267249	25.000000	-45.019531
7569.138552	3.267020	25.000000	-45.019531
7569.140551	3.266793	35.934723	0.089506
7570.214597	3.267362	219.628906	-32.421875
7570.216599	3.267019	219.628906	-32.421875
7570.218600	3.266882	35.935707	0.115992
7571.226652	3.267277	22.363281	-41.210937
7571.228652	3.266983	22.363281	-41.210937
7571.230652	3.266926	35.936184	0.088728
7572.294684	3.265518	214.355469	-30.468750
7572.296685	3.265629	214.355469	-30.468750
7572.298686	3.267040	214.355469	-30.468750
7572.300684	3.266844	35.935280	0.112218
7573.308784	3.263600	21.191406	-55.664062
7573.310785	3.266591	21.191406	-55.664062
7573.312785	3.266967	21.191406	-55.664062
7573.314785	3.266562	21.191406	-55.664062
7573.316787	3.266502	35.931522	0.087567
7574.372824	3.264066	220.703125	-29.199219
7574.374828	3.266870	220.703125	-29.199219
7574.376827	3.267036	220.703125	-29.199219
7574.378827	3.266778	220.703125	-29.199219
7574.380826	3.266677	35.933445	0.119889
7575.394861	3.264175	23.242187	-66.992187
7575.396865	3.266732	23.242187	-66.992187
7575.398864	3.266820	23.242187	-66.992187
7575.400863	3.266571	35.932278	0.087956
7576.455371	3.263509	219.824219	-26.855469
7576.457372	3.267019	219.824219	-26.855469
7576.459373	3.267108	219.824219	-26.855469
7576.461373	3.267102	219.824219	-26.855469
7576.463374	3.267065	35.937717	0.119448
7577.479452	3.266513	26.269531	-65.722656
7577.481454	3.267256	26.269531	-65.722656
7577.483455	3.267032	26.269531	-65.722656
7577.485455	3.266857	35.935432	0.084501
7578.541512	3.264199	220.898437	-27.050781
7578.543523	3.266977	220.898437	-27.050781
7578.545524	3.266905	220.898437	-27.050781
7578.547524	3.266857	220.898437	-27.050781
7578.549524	3.266729	35.934021	0.121070
7579.561572	3.267267	28.222656	-57.910156
7579.563575	3.266889	28.222656	-57.910156
7579.565575	3.266703	35.933731	0.087333
7580.626553	3.266287	220.898437	-29.492187
7580.628555	3.267072	220.898437	-29.492187
7580.630555	3.266839	220.898437	-29.492187
7580.632556	3.266721	35.933933	0.116209
7581.640587	3.266769	26.660156	-65.917969
7581.642588	3.267435	26.660156	-65.917969
7581.646586	3.266880	26.660156	-65.917969
7581.648588	3.266957	35.936531	0.089007
7582.711557	3.264801	216.210937	-30.957031
7582.713559	3.266914	216.210937	-30.957031
7582.715559	3.266895	216.210937	-30.957031
7582.717560	3.266587	35.932453	0.112865
7583.721614	3.266911	26.171875	-69.824219
7583.723614	3.267294	26.171875	-69.824219
7583.725615	3.267021	26.171875	-69.824219
7583.727615	3.266878	35.935661	0.219639
7584.798213	3.267332	212.988281	-31.347656
7584.800214	3.266986	212.988281	-31.347656
7584.802215	3.266801	35.934811	0.113286
7585.806298	3.266911	25.585937	-69.531250
7585.808300	3.266749	25.585937	-69.531250
7585.810300	3.266616	35.932774	0.088392
7586.876870	3.265411	216.210937	-32.031250
7586.878872	3.267161	216.210937	-32.031250
7586.880872	3.266964	216.210937	-32.031250
7586.882872	3.266853	35.935387	0.118025
7587.890909	3.266927	24.121094	-77.539062
7587.892911	3.267324	24.121094	-77.539062
7587.894910	3.266859	24.121094	-77.539062
7587.896909	3.266783	35.934608	0.288558
7588.961486	3.266785	216.796875	-31.640625
7588.963488	3.267243	216.796875	-31.640625
7588.967488	3.266616	216.796875	-31.640625
7588.969488	3.266724	35.933968	0.291973
7589.972082	3.264442	25.390625	-72.460937
7589.974083	3.266784	25.390625	-72.460937
7589.976083	3.266926	25.390625	-72.460937
7589.978084	3.266640	35.933041	0.086271
7591.044099	3.265983	215.136719	-31.250000
7591.046101	3.267044	215.136719	-31.250000
7591.048101	3.266692	215.136719	-31.250000
7591.050102	3.266529	35.931816	0.115729
7592.056168	3.265890	23.535156	-91.113281
7592.058168	3.265920	23.535156	-91.113281
7592.062167	3.266580	23.535156	-91.113281
7592.066168	3.266537	35.931911	0.089526
7593.132222	3.267012	210.644531	-29.882812
7593.136222	3.266602	210.644531	-29.882812
7593.138225	3.266641	35.933048	0.114033
7594.138273	3.265839	24.902344	-89.062500
7594.140275	3.267337	24.902344	-89.062500
7594.142274	3.267037	24.902344	-89.062500
7594.144275	3.266821	35.935032	0.090852
7595.210326	3.267456	216.503906	-30.078125
7595.212328	3.267175	216.503906	-30.078125
7595.214329	3.267173	35.938908	0.117704
7596.226394	3.266923	23.632812	-103.027344
7596.228396	3.266778	23.632812	-103.027344
7596.230397	3.266571	35.932285	0.086456
7597.292445	3.265148	218.652344	-28.222656
7597.294446	3.267019	218.652344	-28.222656
7597.296448	3.266919	218.652344	-28.222656
7597.298447	3.266672	35.933395	0.116635
7598.309397	3.266617	25.292969	-95.800781
7598.311396	3.267017	25.292969	-95.800781
7598.315395	3.266735	25.292969	-95.800781
7598.317396	3.266618	35.932796	0.122919
7599.371479	3.265896	221.777344	-26.855469
7599.373481	3.267284	221.777344	-26.855469
7599.375479	3.266999	221.777344	-26.855469
7599.377481	3.266788	35.934669	0.120312
7600.395515	3.266968	26.953125	-89.257812
7600.397517	3.267210	26.953125	-89.257812
7600.399518	3.266948	26.953125	-89.257812
7600.401517	3.266873	35.935600	0.303585
7601.458128	3.266993	216.796875	-25.488281
7601.460130	3.266864	216.796875	-25.488281
7601.462131	3.266831	35.935139	0.118938
7602.476734	3.265666	27.539062	-77.929687
7602.478737	3.267089	27.539062	-77.929687
7602.480737	3.266829	27.539062	-77.929687
7602.482737	3.266648	35.933125	0.088820
7603.537694	3.267081	212.500000	-26.855469
7603.539696	3.267394	212.500000	-26.855469
7603.541697	3.266966	212.500000	-26.855469
7603.543697	3.266945	35.936398	0.365797
7604.561740	3.266395	21.386719	-93.261719
7604.563742	3.267051	21.386719	-93.261719
7604.565742	3.266728	21.386719	-93.261719
7604.567742	3.266643	35.933075	0.084804
7605.625794	3.266935	210.449219	-28.027344
7605.627794	3.266890	210.449219	-28.027344
7605.629794	3.266566	35.932224	0.516577
7606.644406	3.266894	16.992187	-109.765625
7606.646408	3.266817	16.992187	-109.765625
7606.648407	3.266874	35.935608	0.084303
7607.710896	3.266927	211.328125	-28.808594
7607.712897	3.266866	211.328125	-28.808594
7607.714898	3.266853	35.935379	0.654289
7608.722942	3.266336	20.703125	-101.269531
7608.724945	3.267421	20.703125	-101.269531
7608.726946	3.267064	20.703125	-101.269531
7608.728944	3.266914	35.936054	0.088823
7609.795002	3.266493	210.449219	-29.687500
7609.797006	3.267081	210.449219	-29.687500
7609.799012	3.266602	210.449219	-29.687500
7609.803012	3.266602	35.932621	0.113601
7610.807597	3.266380	21.679687	-116.015625
7610.809598	3.266985	21.679687	-116.015625
7610.811597	3.266646	21.679687	-116.015625
7610.813598	3.266526	35.931782	0.086395
7611.879652	3.266795	210.351562	-29.687500
7611.881655	3.266700	210.351562	-29.687500
7611.885653	3.266676	35.933437	0.115446
7612.892178	3.266113	21.972656	-128.515625
7612.894181	3.267140	21.972656	-128.515625
7612.896178	3.266841	21.972656	-128.515625
7612.898180	3.266661	35.933266	0.085918
7613.958304	3.266384	213.574219	-27.929687
7613.960307	3.267225	213.574219	-27.929687
7613.962307	3.266789	213.574219	-27.929687
7613.964306	3.266786	35.934643	0.116221
7614.974328	3.267284	26.074219	-111.132812
7614.976328	3.267412	26.074219	-111.132812
7614.978329	3.267186	26.074219	-111.132812
7614.980330	3.267120	35.938320	0.399043
7616.040899	3.266733	212.011719	-25.000000
7616.042899	3.267339	212.011719	-25.000000
7616.044900	3.266843	212.011719	-25.000000
7616.046900	3.266812	35.934937	0.114180
7617.061457	3.266755	25.976562	-119.628906
7617.063464	3.267316	25.976562	-119.628906
7617.065461	3.266878	25.976562	-119.628906
7617.067461	3.266774	35.934509	0.179603
7618.115494	3.264311	212.500000	-23.730469
7618.117494	3.267144	212.500000	-23.730469
7618.119494	3.267416	212.500000	-23.730469
7618.121494	3.267076	212.500000	-23.730469
7618.123494	3.267017	35.937187	0.125033
7619.149517	3.265852	26.269531	-119.433594
7619.151518	3.267223	26.269531	-119.433594
7619.153518	3.266934	26.269531	-119.433594
7619.155518	3.266875	35.935627	0.087175
7620.206088	3.264230	207.812500	-23.535156
7620.208095	3.266900	207.812500	-23.535156
7620.210100	3.266986	207.812500	-23.535156
7620.212101	3.266798	35.934784	0.114780
7621.228121	3.267031	24.609375	-122.167969
7621.230125	3.267146	24.609375	-122.167969
7621.232125	3.266789	35.934677	0.087963
7622.288195	3.265907	207.812500	-24.511719
7622.290197	3.267160	207.812500	-24.511719
7622.292196	3.266858	207.812500	-24.511719
7622.294195	3.266738	35.934120	0.113894
7623.310320	3.266353	22.949219	-129.882812
7623.312323	3.267280	22.949219	-129.882812
7623.314322	3.266997	22.949219	-129.882812
7623.316322	3.266940	35.936344	0.086647
7624.376392	3.266670	204.003906	-24.218750
7624.378389	3.267124	204.003906	-24.218750
7624.380389	3.266755	204.003906	-24.218750
7624.382390	3.266683	35.933510	0.187841
7625.398437	3.266889	20.703125	-139.160156
7625.400438	3.266606	20.703125	-139.160156
7625.402438	3.266504	35.931541	0.084728
7626.454521	3.266404	208.398437	-24.902344
7626.456523	3.267544	208.398437	-24.902344
7626.458522	3.267183	208.398437	-24.902344
7626.460521	3.267006	35.937069	0.113599
7627.475430	3.264113	24.414062	-117.187500
7627.477448	3.266837	24.414062	-117.187500
7627.479449	3.267124	24.414062	-117.187500
7627.481450	3.266651	24.414062	-117.187500
7627.483449	3.266692	35.933613	0.086492
7628.539469	3.266968	207.519531	-24.609375
7628.541471	3.267011	207.519531	-24.609375
7628.543471	3.266748	35.934223	0.112565
7629.562084	3.265995	21.679687	-139.941406
7629.564087	3.267482	21.679687	-139.941406
7629.566086	3.267172	21.679687	-139.941406
7629.568087	3.266939	35.936325	0.085116
7630.622132	3.266953	206.250000	-23.828125
7630.624134	3.266582	206.250000	-23.828125
7630.626133	3.266509	35.931595	0.115773
7631.642691	3.264517	24.121094	-134.863281
7631.644692	3.267006	24.121094	-134.863281
7631.646692	3.267111	24.121094	-134.863281
7631.648692	3.266816	35.934978	0.088199
7632.702701	3.264918	204.980469	-22.656250
7632.704703	3.267050	204.980469	-22.656250
7632.706704	3.267031	204.980469	-22.656250
7632.708705	3.266849	35.935333	0.116486
7633.728761	3.264999	25.781250	-135.351562
7633.730761	3.267165	25.781250	-135.351562
7633.732761	3.267183	25.781250	-135.351562
7633.734761	3.266887	35.935760	0.086636
7634.787348	3.266110	203.222656	-21.679687
7634.789348	3.267066	203.222656	-21.679687
7634.791349	3.266763	203.222656	-21.679687
7634.793350	3.266637	35.933010	0.115837
7635.811355	3.264471	24.511719	-150.683594
7635.813359	3.267096	24.511719	-150.683594
7635.815360	3.267178	24.511719	-150.683594
7635.819357	3.266798	35.934776	0.088780
7636.871418	3.266445	203.320312	-21.777344
7636.873419	3.267247	203.320312	-21.777344
7636.875419	3.266883	203.320312	-21.777344
7636.877419	3.266735	35.934082	0.116558
7637.895449	3.267390	23.535156	-157.617187
7637.897451	3.267262	23.535156	-157.617187
7637.899452	3.267060	35.937656	0.088902
7638.953532	3.265610	202.539062	-23.437500
7638.955534	3.267192	202.539062	-23.437500
7638.957534	3.266997	202.539062	-23.437500
7638.959533	3.266816	35.934978	0.117202
7639.975588	3.266960	24.121094	-156.640625
7639.977588	3.266666	24.121094	-156.640625
7639.979589	3.266658	35.933243	0.278504
7641.039637	3.265080	197.851562	-24.902344
7641.041638	3.267201	197.851562	-24.902344
7641.043638	3.267215	197.851562	-24.902344
7641.045637	3.266865	35.935509	0.113301
7642.056146	3.265997	21.875000	-167.285156
7642.058149	3.266980	21.875000	-167.285156
7642.060148	3.266699	21.875000	-167.285156
7642.062149	3.266532	35.931850	0.087334
7643.124182	3.263968	197.753906	-26.269531
7643.126186	3.266834	197.753906	-26.269531
7643.128184	3.266903	197.753906	-26.269531
7643.130183	3.266638	197.753906	-26.269531
7643.132184	3.266613	35.932739	0.113292
7644.138220	3.265053	20.996094	-163.183594
7644.140222	3.267289	20.996094	-163.183594
7644.142222	3.267209	20.996094	-163.183594
7644.144222	3.266936	35.936291	0.087634
7645.204248	3.265039	200.488281	-25.683594
7645.206248	3.267158	200.488281	-25.683594
7645.208249	3.267128	200.488281	-25.683594
7645.210250	3.266840	35.935246	0.115809
7646.224257	3.265967	17.675781	-169.433594
7646.226259	3.267163	17.675781	-169.433594
7646.228260	3.266857	17.675781	-169.433594
7646.230259	3.266737	35.934101	0.088222
7647.288358	3.265739	201.953125	-25.000000
7647.290359	3.267490	201.953125	-25.000000
7647.292360	3.267194	201.953125	-25.000000
7647.294359	3.267093	35.938026	0.112777
7648.306387	3.263360	16.894531	-166.601562
7648.308389	3.266915	16.894531	-166.601562
7648.310393	3.267229	16.894531	-166.601562
7648.312394	3.267002	16.894531	-166.601562
7648.314394	3.266899	35.935894	0.089040
7649.370445	3.264912	195.703125	-23.144531
7649.372445	3.266802	195.703125	-23.144531
7649.374445	3.266833	195.703125	-23.144531
7649.376445	3.266546	35.932011	0.112907
7650.392476	3.267149	20.605469	-156.054687
7650.394478	3.267096	20.605469	-156.054687
7650.396478	3.266804	35.934845	0.089491
7651.452547	3.266112	198.632812	-21.582031
7651.454547	3.266955	198.632812	-21.582031
7651.456547	3.266658	198.632812	-21.582031
7651.458547	3.266659	35.933250	0.112056
7652.476607	3.266222	22.558594	-165.820312
7652.480608	3.266694	22.558594	-165.820312
7652.482609	3.266586	22.558594	-165.820312
7652.484609	3.266547	35.932018	0.088311
7653.534662	3.265312	203.808594	-21.093750
7653.536663	3.267103	203.808594	-21.093750
7653.538667	3.266943	203.808594	-21.093750
7653.540665	3.266776	35.934536	0.114872
7654.562724	3.265447	22.656250	-182.324219
7654.564726	3.267422	22.656250	-182.324219
7654.566725	3.267235	22.656250	-182.324219
7654.568726	3.266987	35.936859	0.089067
7655.618795	3.265959	202.050781	-19.824219
7655.620797	3.267360	202.050781	-19.824219
7655.622798	3.267022	202.050781	-19.824219
7655.624796	3.267006	35.937061	0.113125
7656.645321	3.264629	23.242187	-184.375000
7656.647322	3.266913	23.242187	-184.375000
7656.649321	3.266912	23.242187	-184.375000
7656.651323	3.266595	35.932541	0.087274
7657.701392	3.264352	197.460937	-19.531250
7657.703397	3.266984	197.460937	-19.531250
7657.707397	3.266802	197.460937	-19.531250
7657.709400	3.266828	35.935112	0.115426
7658.727448	3.266206	26.074219	-167.285156
7658.729451	3.267319	26.074219	-167.285156
7658.733450	3.266881	26.074219	-167.285156
7658.735450	3.266791	35.934696	0.088132
7659.786418	3.266659	200.976562	-20.898437
7659.788422	3.266981	200.976562	-20.898437
7659.790421	3.266683	200.976562	-20.898437
7659.794420	3.266583	35.932419	0.277759
7660.807354	3.265565	24.316406	-179.980469
7660.809357	3.266938	24.316406	-179.980469
7660.811358	3.266756	24.316406	-179.980469
7660.813358	3.266483	35.931313	0.089686
7661.871450	3.266908	200.683594	-21.484375
7661.873452	3.266578	200.683594	-21.484375
7661.875451	3.266450	35.930954	0.111938
7662.891487	2.318961	22.558594	-190.820312
7662.893489	3.267201	22.558594	-190.820312
7662.895489	3.266852	22.558594	-190.820312
7662.897489	3.266695	35.933640	0.090877
7663.951561	3.264746	196.191406	-21.386719
7663.953564	3.266914	196.191406	-21.386719
7663.955563	3.266943	196.191406	-21.386719
7663.957563	3.266670	35.933376	0.113986
7664.977638	3.267026	25.585937	-176.074219
7664.979640	3.267047	25.585937	-176.074219
7664.981641	3.266828	35.935112	0.087088
7666.037708	3.266812	199.414062	-21.582031
7666.039710	3.266936	199.414062	-21.582031
7666.041712	3.266591	199.414062	-21.582031
7666.043711	3.266572	35.932293	0.112531
7667.060695	3.267039	25.390625	-182.812500
7667.064699	3.266865	25.390625	-182.812500
7667.066703	3.266828	35.935104	0.089713
7668.120725	3.267323	197.460937	-20.605469
7668.122726	3.266919	197.460937	-20.605469
7668.124728	3.266825	35.935078	0.113400
7669.141258	3.265721	25.195312	-183.593750
7669.143259	3.266982	25.195312	-183.593750
7669.145261	3.266778	25.195312	-183.593750
7669.147260	3.266635	35.932983	0.086937
7670.203816	3.267176	197.753906	-19.726562
7670.205818	3.266829	197.753906	-19.726562
7670.207817	3.266689	35.933578	0.110864
7671.226390	3.267263	24.707031	-188.378906
7671.228390	3.266829	24.707031	-188.378906
7671.230391	3.266722	35.933941	0.170434
7672.284988	3.266541	191.503906	-18.261719
7672.286991	3.267272	191.503906	-18.261719
7672.288992	3.266878	191.503906	-18.261719
7672.290994	3.266770	35.934475	0.112165
7673.311010	3.266906	23.925781	-194.921875
7673.313016	3.267213	23.925781	-194.921875
7673.315012	3.266773	23.925781	-194.921875
7673.317011	3.266775	35.934525	0.091949
7674.365112	3.263156	195.996094	-18.652344
7674.367113	3.266818	195.996094	-18.652344
7674.369115	3.267223	195.996094	-18.652344
7674.371114	3.266850	195.996094	-18.652344
7674.373114	3.266824	35.935059	0.114551
7675.397685	3.266562	24.902344	-186.914062
7675.399688	3.266988	24.902344	-186.914062
7675.401687	3.266625	24.902344	-186.914062
7675.403691	3.266526	35.931789	0.155210
7676.447764	3.265522	189.062500	-18.261719
7676.449764	3.267167	189.062500	-18.261719
7676.451765	3.266975	189.062500	-18.261719
7676.453764	3.266761	35.934368	0.117531
7677.480255	3.266755	21.777344	-195.605469
7677.482256	3.267461	21.777344	-195.605469
7677.484255	3.267155	21.777344	-195.605469
7677.486256	3.267044	35.937489	0.086547
7678.532315	3.264730	188.867187	-19.921875
7678.534317	3.266895	188.867187	-19.921875
7678.536317	3.266985	188.867187	-19.921875
7678.538319	3.266608	35.932682	0.114048
7679.558393	3.266988	17.968750	-203.320312
7679.560395	3.266641	17.968750	-203.320312
7679.562394	3.266623	35.932854	0.090299
7680.612435	3.266207	188.476562	-20.898437
7680.614435	3.267158	188.476562	-20.898437
7680.616438	3.266844	188.476562	-20.898437
7680.618437	3.266695	35.933651	0.117633
7681.640472	3.264246	16.601562	-205.175781
7681.642481	3.266927	16.601562	-205.175781
7681.644483	3.267006	16.601562	-205.175781
7681.646483	3.266705	35.933754	0.088289
7682.702544	3.265910	184.472656	-20.605469
7682.706543	3.267046	184.472656	-20.605469
7682.708546	3.266923	184.472656	-20.605469
7682.710545	3.266870	35.935574	0.110118
7683.724612	3.265192	18.457031	-197.265625
7683.726615	3.267234	18.457031	-197.265625
7683.728615	3.267151	18.457031	-197.265625
7683.730616	3.266890	35.935783	0.087099
7684.784676	3.265564	185.156250	-21.093750
7684.786678	3.267245	185.156250	-21.093750
7684.788678	3.267036	185.156250	-21.093750
7684.790678	3.266824	35.935066	0.112592
7685.804722	3.265584	20.214844	-200.195312
7685.806723	3.266992	20.214844	-200.195312
7685.808724	3.266791	20.214844	-200.195312
7685.810723	3.266592	35.932507	0.088910
7686.868811	3.265956	190.039062	-22.070312
7686.870814	3.267264	190.039062	-22.070312
7686.872814	3.266906	190.039062	-22.070312
7686.874813	3.266760	35.934357	0.111565
7687.885373	3.266093	18.945312	-222.167969
7687.887376	3.267062	18.945312	-222.167969
7687.889375	3.266684	18.945312	-222.167969
7687.891375	3.266569	35.932259	0.090318
7688.953454	3.266762	183.886719	-21.777344
7688.955454	3.266825	183.886719	-21.777344
7688.957455	3.266521	35.931736	0.596208
7689.975431	3.267111	18.945312	-234.570312
7689.977433	3.267068	18.945312	-234.570312
7689.979433	3.266791	35.934704	0.088476
7691.033498	3.265084	186.718750	-21.582031
7691.035501	3.266928	186.718750	-21.582031
7691.037500	3.266686	186.718750	-21.582031
7691.039500	3.266662	35.933285	0.115136
7692.053561	3.264381	21.582031	-223.828125
7692.055565	3.266911	21.582031	-223.828125
7692.057564	3.266967	21.582031	-223.828125
7692.059564	3.266664	35.933304	0.090519
7693.117592	3.263266	190.332031	-20.214844
7693.119593	3.266867	190.332031	-20.214844
7693.121593	3.267400	190.332031	-20.214844
7693.123594	3.266941	190.332031	-20.214844
7693.125594	3.266950	35.936451	0.110744
7694.140150	3.265615	21.875000	-224.511719
7694.142155	3.266864	21.875000	-224.511719
7694.144160	3.266590	21.875000	-224.511719
7694.146158	3.266493	35.931427	0.088047
7695.198238	3.266330	187.500000	-18.261719
7695.200240	3.267287	187.500000	-18.261719
7695.202242	3.266936	187.500000	-18.261719
7695.204241	3.266886	35.935753	0.114509
7696.230317	3.267061	20.800781	-233.593750
7696.232319	3.266832	35.935146	0.087729
7697.282365	3.266331	184.765625	-16.503906
7697.284366	3.267018	184.765625	-16.503906
7697.286368	3.266685	184.765625	-16.503906
7697.288368	3.266565	35.932213	0.113213
7698.310428	3.265166	20.507812	-237.792969
7698.312431	3.267245	20.507812	-237.792969
7698.314429	3.267160	20.507812	-237.792969
7698.316429	3.266899	35.935894	0.087258
7699.364494	2.073610	183.593750	-15.722656
7699.366494	3.267263	183.593750	-15.722656
7699.368496	3.266924	183.593750	-15.722656
7699.370495	3.266821	35.935032	0.112819
7700.396535	3.266264	20.800781	-239.648437
7700.398535	3.267290	20.800781	-239.648437
7700.402531	3.266818	20.800781	-239.648437
7700.404536	3.266815	35.934971	0.087668
7701.446617	3.265439	188.183594	-16.015625
7701.448618	3.267159	188.183594	-16.015625
7701.450620	3.267013	188.183594	-16.015625
7701.452619	3.266751	35.934261	0.113450
7702.477200	3.264019	20.703125	-240.332031
7702.479203	3.266906	20.703125	-240.332031
7702.481201	3.267155	20.703125	-240.332031
7702.483201	3.266856	20.703125	-240.332031
7702.485202	3.266731	35.934040	0.088596
7703.529275	3.266896	189.355469	-15.820312
7703.531278	3.267190	189.355469	-15.820312
7703.533277	3.266774	189.355469	-15.820312
7703.535278	3.266754	35.934296	0.116130
7704.560239	3.264740	21.484375	-237.304687
7704.562241	3.267125	21.484375	-237.304687
7704.564243	3.267117	21.484375	-237.304687
7704.566246	3.266967	35.936638	0.088058
7705.612319	3.266554	187.207031	-15.332031
7705.614320	3.267084	187.207031	-15.332031
7705.616321	3.266783	187.207031	-15.332031
7705.618320	3.266647	35.933117	0.171000
7706.640903	3.266685	24.511719	-223.339844
7706.642906	3.267153	24.511719	-223.339844
7706.644904	3.266832	24.511719	-223.339844
7706.646905	3.266708	35.933792	0.125308
7707.695875	3.266342	181.835937	-14.746094
7707.697877	3.267106	181.835937	-14.746094
7707.699877	3.266636	181.835937	-14.746094
7707.701875	3.266587	35.932461	0.115921
7708.731922	3.267075	20.019531	-252.050781
7708.733924	3.266683	20.019531	-252.050781
7708.735923	3.266571	35.932285	0.158546
7709.777930	3.267058	184.179687	-14.550781
7709.779933	3.267566	184.179687	-14.550781
7709.781932	3.267544	184.179687	-14.550781
7709.783931	3.267058	35.937637	0.136484
7710.807967	3.266984	24.707031	-229.101562
7710.809968	3.267485	24.707031	-229.101562
7710.811968	3.267107	24.707031	-229.101562
7710.813968	3.266983	35.936813	0.087630
7711.862477	3.266408	179.394531	-15.136719
7711.864485	3.267163	179.394531	-15.136719
7711.866486	3.266791	179.394531	-15.136719
7711.868484	3.266723	35.933952	0.113814
7712.890547	3.266496	21.777344	-243.554687
7712.892548	3.267299	21.777344	-243.554687
7712.894550	3.267258	21.777344	-243.554687
7712.896550	3.266920	35.936123	0.088006
7713.944581	3.264433	181.445312	-16.406250
7713.948587	3.267186	181.445312	-16.406250
7713.950588	3.266832	181.445312	-16.406250
7713.952589	3.266888	35.935768	0.115958
7714.976653	3.267596	22.070312	-242.382812
7714.978655	3.267158	35.938736	0.087469
7716.033227	3.267574	179.101562	-16.992187
7716.035226	3.267245	179.101562	-16.992187
7716.037227	3.267274	35.940014	0.113510
7717.057305	3.267198	18.652344	-262.792969
7717.059305	3.267134	18.652344	-262.792969
7717.061305	3.266845	35.935299	0.717748
7718.113341	3.266911	180.664062	-18.457031
7718.115343	3.267231	180.664062	-18.457031
7718.117343	3.266969	180.664062	-18.457031
7718.119344	3.266895	35.935848	0.181312
7719.141378	3.267365	17.871094	-267.187500
7719.143382	3.266917	17.871094	-267.187500
7719.145381	3.266828	35.935112	0.146794
7720.197400	3.263892	176.855469	-18.554687
7720.199399	3.267234	176.855469	-18.554687
7720.201400	3.267545	176.855469	-18.554687
7720.203400	3.267139	176.855469	-18.554687
7720.205401	3.267123	35.938347	0.112596
7721.225467	3.267009	20.117187	-250.976562
7721.227469	3.267013	35.937141	0.086185
7722.282038	3.266251	182.324219	-19.140625
7722.284041	3.266330	182.324219	-19.140625
7722.286041	3.266839	182.324219	-19.140625
7722.288042	3.266731	35.934040	0.110947
7723.306066	3.266406	18.945312	-250.585937
7723.308069	3.267343	18.945312	-250.585937
7723.310071	3.266964	18.945312	-250.585937
7723.312077	3.266907	35.935978	0.088186
7724.363066	3.266163	177.539062	-18.164062
7724.365069	3.267466	177.539062	-18.164062
7724.367068	3.267197	177.539062	-18.164062
7724.369069	3.266986	35.936852	0.113575
7725.387094	3.263860	15.527344	-259.570312
7725.389094	3.266974	15.527344	-259.570312
7725.391093	3.267203	15.527344	-259.570312
7725.393093	3.267000	15.527344	-259.570312
7725.395093	3.266875	35.935627	0.091985
7726.445128	3.264910	173.535156	-16.992187
7726.447130	3.267376	173.535156	-16.992187
7726.449130	3.267447	173.535156	-16.992187
7726.451130	3.267155	35.938709	0.111019
7727.473154	3.266808	12.792969	-266.308594
7727.475156	3.266860	12.792969	-266.308594
7727.477156	3.266695	35.933651	0.090393
7728.527240	3.265429	173.339844	-16.406250
7728.529242	3.267417	173.339844	-16.406250
7728.533240	3.266997	173.339844	-16.406250
7728.535240	3.266998	35.936974	0.112911
7729.555302	3.265232	16.113281	-250.781250
7729.557303	3.267162	16.113281	-250.781250
7729.559303	3.267064	16.113281	-250.781250
7729.561304	3.266891	35.935795	0.090919
7730.609351	3.264709	174.218750	-15.722656
7730.611353	3.267026	174.218750	-15.722656
7730.613351	3.266982	174.218750	-15.722656
7730.615352	3.266774	35.934517	0.112558
7731.641429	3.265649	14.843750	-268.164062
7731.643432	3.267273	14.843750	-268.164062
7731.647430	3.266830	14.843750	-268.164062
7731.649432	3.266806	35.934864	0.085644
7732.695503	3.267191	178.222656	-14.941406
7732.697503	3.266879	178.222656	-14.941406
7732.701501	3.266814	35.934952	0.517718
7733.728515	3.267118	16.308594	-274.023437
7733.730516	3.267114	16.308594	-274.023437
7733.732518	3.266824	35.935066	0.084557
7734.772607	3.266214	177.929687	-13.964844
7734.774609	3.267482	177.929687	-13.964844
7734.776612	3.267141	177.929687	-13.964844
7734.778616	3.266912	35.936035	0.116627
7735.808655	3.266257	20.117187	-264.941406
7735.810657	3.267163	20.117187	-264.941406
7735.812657	3.266794	20.117187	-264.941406
7735.816655	3.266641	35.933056	0.088789
7736.854727	3.263076	177.246094	-12.792969
7736.856728	3.266634	177.246094	-12.792969
7736.858729	3.267080	177.246094	-12.792969
7736.860727	3.266661	177.246094	-12.792969
7736.862728	3.266610	35.932713	0.116518
7737.890789	1.815413	23.437500	-256.738281
7737.892792	3.267165	23.437500	-256.738281
7737.894793	3.266777	23.437500	-256.738281
7737.896793	3.266617	35.932789	0.087910
7738.943307	3.267257	173.437500	-11.425781
7738.945310	3.266998	173.437500	-11.425781
7738.947309	3.266997	35.936966	0.113646
7739.977329	3.267203	23.046875	-264.746094
7739.979329	3.267209	23.046875	-264.746094
7739.981329	3.266903	35.935936	0.586523
7741.024310	3.266617	176.367187	-11.816406
7741.028310	3.266747	176.367187	-11.816406
7741.030312	3.266657	176.367187	-11.816406
7741.032312	3.266650	35.933155	0.181203
7742.060355	3.267123	19.921875	-280.566406
7742.064356	3.267087	19.921875	-280.566406
7742.066359	3.267033	19.921875	-280.566406
7742.068360	3.266985	35.936840	0.087796
7743.106368	3.266601	177.343750	-12.011719
7743.108368	3.267346	177.343750	-12.011719
7743.110367	3.266962	177.343750	-12.011719
7743.112368	3.266791	35.934704	0.116601
7744.142920	3.267317	22.851562	-266.601562
7744.144921	3.267386	22.851562	-266.601562
7744.146922	3.267046	35.937508	0.089098
7745.187889	3.266227	178.613281	-12.207031
7745.189890	3.267221	178.613281	-12.207031
7745.191892	3.266811	178.613281	-12.207031
7745.193891	3.266782	35.934597	0.116966
7746.220470	3.264320	21.777344	-273.046875
7746.222471	3.267226	21.777344	-273.046875
7746.224472	3.267489	21.777344	-273.046875
7746.226471	3.266994	21.777344	-273.046875
7746.228471	3.267006	35.937061	0.089019
7747.274578	3.267010	177.539062	-12.011719
7747.276580	3.267180	177.539062	-12.011719
7747.278580	3.266876	177.539062	-12.011719
7747.280581	3.266810	35.934910	0.388656
7748.308644	3.266011	21.972656	-273.632812
7748.310646	3.267515	21.972656	-273.632812
7748.314645	3.266986	21.972656	-273.632812
7748.316645	3.267068	35.937752	0.088220
7749.355207	3.266103	172.949219	-11.328125
7749.359207	3.267291	172.949219	-11.328125
7749.361209	3.267094	172.949219	-11.328125
7749.363214	3.267097	35.938072	0.112716
7750.393254	3.267424	18.945312	-290.234375
7750.395258	3.267130	18.945312	-290.234375
7750.397258	3.267007	35.937080	0.085736
7751.441316	3.267413	171.582031	-10.937500
7751.443320	3.266982	171.582031	-10.937500
7751.445320	3.266844	35.935280	0.110995
7752.475323	3.266797	22.167969	-275.683594
7752.477326	3.267607	22.167969	-275.683594
7752.479326	3.267230	22.167969	-275.683594
7752.481326	3.267094	35.938034	0.087436
7753.523880	3.267368	168.164062	-10.546875
7753.525881	3.267002	168.164062	-10.546875
7753.529881	3.266774	35.934509	0.108296
7754.559967	3.265379	19.238281	-288.964844
7754.561968	3.267148	19.238281	-288.964844
7754.563971	3.267006	19.238281	-288.964844
7754.565970	3.266737	35.934101	0.086248
7755.604039	3.265528	169.335937	-11.328125
7755.606041	3.267172	169.335937	-11.328125
7755.608041	3.266923	169.335937	-11.328125
7755.610040	3.266737	35.934101	0.114358
7756.642103	3.265873	16.894531	-295.996094
7756.644104	3.267172	16.894531	-295.996094
7756.646104	3.266817	16.894531	-295.996094
7756.648105	3.266694	35.933632	0.085075
7757.688567	3.266025	172.265625	-12.207031
7757.690569	3.267041	172.265625	-12.207031
7757.692566	3.266818	35.934998	0.112253
7758.723106	3.264805	17.089844	-287.500000
7758.725108	3.267376	17.089844	-287.500000
7758.727109	3.267460	17.089844	-287.500000
7758.729108	3.267197	35.939171	0.085151
7759.769175	3.265466	169.042969	-12.597656
7759.771185	3.267004	169.042969	-12.597656
7759.773192	3.266826	169.042969	-12.597656
7759.775193	3.266695	35.933651	0.112906
7760.807256	3.265855	13.671875	-294.726562
7760.809259	3.267109	13.671875	-294.726562
7760.811260	3.266873	13.671875	-294.726562
7760.813258	3.266682	35.933498	0.083853
7761.853301	3.266011	167.285156	-13.183594
7761.855300	3.267142	167.285156	-13.183594
7761.857301	3.266911	167.285156	-13.183594
7761.859301	3.266753	35.934280	0.113264
7762.887314	3.266082	12.109375	-295.507812
7762.889315	3.267600	12.109375	-295.507812
7762.891316	3.267353	12.109375	-295.507812
7762.893315	3.267118	35.938293	0.088227
7763.941356	3.265930	169.824219	-14.550781
7763.943357	3.267007	169.824219	-14.550781
7763.945358	3.266867	35.935539	0.109187
7764.972364	3.267147	10.449219	-304.785156
7764.974366	3.266832	10.449219	-304.785156
7764.976366	3.266734	35.934074	0.086453
7766.022440	3.265856	166.113281	-14.257812
7766.024444	3.267155	166.113281	-14.257812
7766.026442	3.266832	166.113281	-14.257812
7766.028443	3.266745	35.934200	0.111029
7767.054514	3.267180	11.132812	-309.082031
7767.056517	3.267548	11.132812	-309.082031
7767.058516	3.267259	11.132812	-309.082031
7767.060516	3.267193	35.939125	0.257287
7768.106580	3.266237	169.140625	-14.843750
7768.108580	3.267147	169.140625	-14.843750
7768.110579	3.266813	169.140625	-14.843750
7768.112579	3.266679	35.933464	0.112153
7769.136572	3.265970	12.988281	-309.960937
7769.138574	3.267015	12.988281	-309.960937
7769.140575	3.266850	12.988281	-309.960937
7769.142574	3.266665	35.933311	0.086954
7770.192655	3.267455	161.230469	-14.257812
7770.194658	3.266964	161.230469	-14.257812
7770.196658	3.266844	35.935280	0.111663
7771.215178	3.265045	15.625000	-305.957031
7771.217179	3.267044	15.625000	-305.957031
7771.219180	3.267074	15.625000	-305.957031
7771.221179	3.266767	35.934441	0.092355
7772.273185	3.264281	161.523437	-14.550781
7772.275185	3.266848	161.523437	-14.550781
7772.277185	3.267027	161.523437	-14.550781
7772.279186	3.266782	35.934597	0.112781
7773.303641	3.267038	18.457031	-300.390625
7773.305644	3.266880	18.457031	-300.390625
7773.307646	3.266718	35.933899	0.087925
7774.356595	3.266341	163.964844	-14.257812
7774.358596	3.267249	163.964844	-14.257812
7774.360596	3.266826	163.964844	-14.257812
7774.362596	3.266798	35.934776	0.111659
7775.384618	3.266298	17.578125	-309.667969
7775.386619	3.267326	17.578125	-309.667969
7775.388619	3.266969	17.578125	-309.667969
7775.390619	3.266821	35.935032	0.087788
7776.436651	3.266687	167.968750	-14.062500
7776.438654	3.267379	167.968750	-14.062500
7776.440654	3.266969	167.968750	-14.062500
7776.442654	3.266888	35.935768	0.115718
7777.468724	3.266443	18.457031	-305.664062
7777.470724	3.267068	18.457031	-305.664062
7777.472725	3.266758	18.457031	-305.664062
7777.476725	3.266550	35.932045	0.089749
7778.521252	3.264854	162.792969	-12.988281
7778.523254	3.267178	162.792969	-12.988281
7778.525253	3.267194	162.792969	-12.988281
7778.527254	3.266886	35.935741	0.113505
7779.553305	3.267359	20.117187	-303.222656
7779.555307	3.267490	20.117187	-303.222656
7779.557305	3.267105	35.938152	0.086921
7780.601899	3.266767	164.843750	-12.304687
7780.603902	3.267296	164.843750	-12.304687
7780.605901	3.266926	164.843750	-12.304687
7780.607900	3.266811	35.934917	0.170902
7781.635945	3.266703	15.820312	-320.312500
7781.637947	3.267394	15.820312	-320.312500
7781.639947	3.267012	15.820312	-320.312500
7781.641947	3.266916	35.936081	0.088514
7782.686015	3.267301	163.085937	-11.328125
7782.688015	3.266956	163.085937	-11.328125
7782.690014	3.266869	35.935555	0.114102
7783.722074	3.267042	16.406250	-319.726562
7783.724076	3.266737	16.406250	-319.726562
7783.726076	3.266634	35.932968	0.216554
7784.768132	3.265800	168.457031	-11.035156
7784.770133	3.267233	168.457031	-11.035156
7784.772135	3.267001	168.457031	-11.035156
7784.774136	3.266835	35.935181	0.113396
7785.802122	3.264315	16.503906	-321.582031
7785.804125	3.267316	16.503906	-321.582031
7785.806124	3.267510	16.503906	-321.582031
7785.808125	3.267167	16.503906	-321.582031
7785.810123	3.267097	35.938072	0.089407
7786.850231	3.266988	168.554687	-10.937500
7786.852233	3.266786	168.554687	-10.937500
7786.854233	3.266512	35.931629	0.114080
7787.881188	3.263524	19.531250	-308.593750
7787.883191	3.266911	19.531250	-308.593750
7787.887189	3.266916	19.531250	-308.593750
7787.889190	3.266910	19.531250	-308.593750
7787.891189	3.266915	35.936069	0.089802
7788.933329	3.265634	164.257812	-10.351562
7788.935331	3.266988	164.257812	-10.351562
7788.937329	3.266778	164.257812	-10.351562
7788.939330	3.266588	35.932472	0.112543
7789.969412	3.266270	16.503906	-323.242187
7789.971413	3.267318	16.503906	-323.242187
7789.973412	3.266940	16.503906	-323.242187
7789.975412	3.266762	35.934383	0.086641
7791.017463	3.266859	166.308594	-10.253906
7791.019464	3.267411	166.308594	-10.253906
7791.023465	3.266973	166.308594	-10.253906
7791.025464	3.267014	35.937153	0.111045
7792.052029	2.559766	16.406250	-326.953125
7792.054030	3.267186	16.406250	-326.953125
7792.056029	3.267204	16.406250	-326.953125
7792.058029	3.266663	35.933296	0.087365
7793.098084	3.263779	162.890625	-10.156250
7793.100084	3.266932	162.890625	-10.156250
7793.102084	3.267131	162.890625	-10.156250
7793.104084	3.266832	162.890625	-10.156250
7793.106083	3.266729	35.934021	0.114365
7794.134158	3.266969	16.992187	-323.730469
7794.138157	3.267060	16.992187	-323.730469
7794.140159	3.266932	16.992187	-323.730469
7794.142163	3.266888	35.935768	0.089870
7795.182217	3.264570	163.085937	-10.449219
7795.184218	3.266853	163.085937	-10.449219
7795.186220	3.266931	163.085937	-10.449219
7795.188218	3.266674	35.933411	0.112181
